AccX,AccY,AccZ,GyroX,GyroY,GyroZ,AngleX,AngleY,AngleZ,AccAngleX,AccAngleY,RuheState,FernstState,TranspState
0.741213,0.16809,0.305944,-48.920429,20.342747,31.285099,-27.807325,-59.956959,24.24268,11.839018,-64.781624,0,0,1
0.694827,0.187377,0.304724,-12.630351,-1.977864,31.849985,-28.223877,-60.208767,27.459528,13.872619,-62.758804,0,0,1
0.825198,-0.01648,0.258093,34.331482,-14.435879,7.682046,-24.28311,-61.885433,28.235415,-1.091982,-72.598923,0,0,1
0.834475,-0.18152,0.282507,51.919266,-5.382443,-16.714901,-18.891321,-62.542076,26.547209,-11.642209,-68.07991,0,0,1
0.851565,-0.239625,0.402868,20.423084,-40.451145,-16.821772,-16.777447,-66.518478,24.848209,-14.271355,-61.169304,0,0,1
0.844729,-0.175172,0.475622,-38.599819,-49.168701,-15.401924,-20.467361,-71.235542,23.292616,-10.242641,-59.035389,0,0,1
0.705325,-0.07483,0.517126,-83.989128,-51.351906,-19.493526,-28.469067,-75.963013,21.323771,-4.890345,-53.468563,0,0,1
0.702883,0.016967,0.577429,-146.813568,-42.970226,-38.256886,-42.409924,-79.708641,17.459826,1.068554,-50.584278,0,0,1
0.899905,0.094604,0.47196,-119.10363,17.716793,-21.172916,-53.244228,-77.598022,15.321361,5.318866,-61.858215,0,0,1
0.914797,0.294066,0.488562,-131.622726,49.42672,-22.516428,-64.890747,-72.315063,13.047201,15.830724,-58.062851,0,0,1
0.808108,0.327514,0.347204,-204.416611,73.518318,-26.440092,-83.417618,-64.780556,10.376752,20.423805,-59.432217,0,0,1
0.825442,0.291869,0.330114,-126.630348,6.052671,-28.50116,-93.919632,-64.123962,7.498135,18.175522,-61.905708,0,0,1
0.695803,0.180297,0.327429,-65.225769,-3.916795,6.231665,-98.233391,-64.464272,8.127533,13.195124,-61.75523,0,0,1
0.789797,0.175658,0.366491,-54.034931,-4.771756,-10.18055,-101.388985,-64.90271,7.099298,11.406129,-62.770599,0,0,1
0.783694,0.180297,0.237341,-10.889893,0.968701,0.918687,-100.190735,-64.892311,7.192085,12.417499,-69.177063,0,0,1
0.939456,0.166625,0.233435,31.323849,-77.565651,-54.608028,-94.891159,-72.732376,1.676674,9.76657,-73.023323,0,0,1
1.008547,-0.051148,0.261511,-37.989132,-172.649612,-153.56987,-96.809708,-89.870598,-13.833883,-2.81048,-75.200203,0,0,1
1.029543,-0.090699,-0.002161,-51.958595,-29.565649,-61.615662,-103.515686,-86.846062,-20.057066,-174.965454,-84.964012,0,0,1
0.724856,0.135131,0.149694,-2.615083,19.793129,31.895786,-101.497284,-84.639069,-16.835592,10.34664,-74.452698,0,0,1
0.688723,0.111693,0.071081,-34.21814,8.49542,-9.050778,-102.670967,-83.687782,-17.749722,9.163874,-79.118782,0,0,1
0.85303,0.00891,0.043249,-57.210506,-14.237406,-17.997343,-106.268288,-85.163979,-19.567453,0.597682,-87.036713,0,0,1
1.185305,0.219848,0.027868,-20.737221,-27.138168,7.911054,-105.985397,-87.735039,-18.768436,10.504841,-79.410133,0,0,1
1.093264,0.137084,0.325231,-72.798286,-43.977863,2.353802,-110.934204,88.224571,-18.530703,6.853183,-72.108231,0,0,1
1.106204,0.146117,0.241979,-179.149445,-23.519848,74.995018,-126.300682,86.218765,-10.956205,7.352685,-75.66568,0,0,1
0.830569,0.292357,0.344519,-22.126534,76.877098,113.86525,-125.60453,-85.525375,0.544185,18.011168,-61.452866,0,0,1
0.598635,0.34851,0.221472,-60.554016,113.854202,107.712578,-128.513382,-73.653633,11.423156,28.634787,-55.402836,0,0,1
0.621584,0.211791,0.139196,10.942168,46.480152,65.285095,-124.492241,-68.93631,18.016951,18.391588,-67.817825,0,0,1
0.99512,0.25476,0.009313,114.133011,-31.046564,61.346169,-110.418335,-72.143196,24.212914,14.359226,-75.630974,0,0,1
0.961672,-0.249879,0.143591,155.125366,-72.084732,-109.233986,-93.143906,-79.301628,13.180281,-14.412502,-73.317383,0,0,1
1.023684,-0.103639,0.275183,232.758957,-78.542747,-7.905741,-68.354233,-86.969223,12.381801,-5.584059,-73.973366,0,0,1
0.560549,0.278686,0.432409,154.560486,12.510686,63.926323,-51.25901,-84.940659,18.83836,21.487152,-47.456352,0,0,1
0.53467,0.160766,0.299353,70.926903,-9.718322,-10.409557,-42.919472,-85.355034,17.786995,14.700787,-57.563484,0,0,1
0.761233,0.175658,0.348669,159.949799,-32.619083,-30.77597,-25.992281,-88.13353,14.678622,11.848535,-62.847836,0,0,1
1.4751,-0.12317,0.640661,5.781863,-94.206871,-131.356125,-24.987738,82.981712,1.411653,-4.379608,-66.141602,0,0,1
1.176272,-0.159303,0.420202,-41.790657,65.564117,25.086626,-28.769785,-89.970207,3.945402,-7.268077,-69.091042,0,0,1
1.168948,0.106078,0.227331,-140.508224,30.831297,111.422501,-42.000088,-86.67688,15.199076,5.090348,-77.887733,0,0,1
0.930911,0.253539,0.197058,-24.859358,55.579391,153.712585,-43.322269,-80.861458,30.724047,14.919911,-70.968361,0,0,1
0.586428,0.212279,0.070349,-4.798289,23.151907,128.766006,-42.535378,-78.335175,43.729412,19.768942,-69.125824,0,0,1
0.444338,0.18518,-0.009241,51.46125,-27.382444,32.933956,-40.643402,-75.405167,47.05574,157.380295,-67.350571,0,0,1
1.026614,0.222777,-0.17013,226.758957,-101.779388,-48.943905,-21.2276,-65.317497,42.112408,167.916397,-74.728004,0,0,1
1.631838,0.27893,0.897009,219.384918,-188.206863,-187.692001,1.082052,-83.841324,23.155516,8.519043,-60.072914,0,0,1
0.827395,0.002074,0.614294,-98.263939,-4.054199,1.11716,-8.663446,-83.633949,23.268349,0.115326,-53.408051,0,0,1
0.609622,0.186645,0.323522,39.369648,2.342747,39.544643,-4.290707,-82.89949,27.262358,15.133124,-58.505169,0,0,1
0.535891,0.286254,0.403601,114.606293,34.464886,40.59808,7.600985,-78.77581,31.362764,23.107344,-47.282585,0,0,1
0.723635,0.045531,0.236853,23.430719,0.312213,-26.073679,9.83658,-78.600731,28.729322,3.422127,-71.566658,0,0,1
1.568606,0.011107,0.174597,-15.057832,-22.832825,-57.14238,8.157489,-80.961433,22.957941,0.403219,-83.635994,0,0,1
1.109377,-0.106568,0.206091,-126.325005,-4.298474,0.399603,-4.617217,-81.331421,22.998301,-5.395326,-78.187515,0,0,1
0.918948,0.065307,0.196081,-138.752487,-28.069468,52.033192,-18.179079,-84.02961,28.253653,3.975788,-77.325119,0,0,1
0.899661,0.328734,0.359655,-56.676155,9.014503,115.346169,-23.050474,-82.687965,39.903618,18.741608,-61.560043,0,0,1
0.695803,0.50476,0.407507,-32.416611,24.037403,102.567543,-25.157146,-79.595093,50.262939,32.045712,-47.005367,0,0,1
0.562014,0.326293,0.403845,-7.821191,28.434351,23.315634,-24.923286,-76.134125,52.617817,25.242893,-47.268208,0,0,1
0.799075,0.164428,0.458044,13.766596,70.144279,-5.295053,-22.859762,-68.841705,52.083015,10.121979,-58.657207,0,0,1
0.614504,-0.079225,0.537878,-35.515846,24.358015,-37.7836,-26.028748,-66.023903,48.266872,-5.540977,-48.49929,0,0,1
0.957278,-0.380494,-0.027552,-155.363174,-50.603817,-5.020245,-44.052647,-61.060097,47.759827,-158.331543,-68.271935,0,0,1
0.979006,-0.20276,0.232702,-151.042572,-1.382443,-30.424824,-58.349632,-61.425766,44.68692,-11.392215,-72.501831,0,0,1
0.989504,-0.317018,0.129675,-65.729584,115.487785,-46.256886,-64.041016,-50.184406,40.014973,-17.623177,-70.906876,0,0,1
0.529543,-0.122193,0.30863,-24.676151,68.342751,-20.348488,-65.428139,-43.574528,37.959774,-11.274849,-57.918858,0,0,1
0.639407,-0.217164,0.017126,-75.836456,13.106106,-25.85994,-72.000931,-42.829529,35.347919,-18.752962,-71.18663,0,0,1
1.098147,-0.067506,0.036169,62.071938,-11.580917,-17.982077,-64.48735,-44.839432,33.531731,-3.515788,-86.010651,0,0,1
1.099368,0.025756,0.453405,29.537588,-93.870995,-59.524059,-60.249161,-54.585098,27.5198,1.240731,-67.555038,0,0,1
0.942141,0.067016,0.419958,-218.340286,-92.512215,-44.379021,-80.581161,-63.964378,23.037519,3.717227,-65.706139,0,0,1
0.883792,-0.08484,0.155798,-139.683792,-19.626719,-1.508794,-92.90345,-66.200745,22.885132,-5.400557,-78.65007,0,0,1
0.711672,0.058227,0.203405,20.591024,33.457253,48.567543,-88.91732,-63.033993,27.790453,4.497995,-73.443161,0,0,1
0.726565,0.168578,0.249792,9.751328,42.083206,35.132431,-85.926277,-58.957375,31.338829,12.375477,-67.472977,0,0,1
1.031741,0.179809,0.123327,-19.714319,-9.550383,10.73548,-85.96273,-60.28487,32.423111,9.817528,-78.067223,0,0,1
0.850344,0.077025,0.167761,70.560493,-13.870993,-74.256889,-77.157829,-62.00716,24.923164,5.078448,-77.7519,0,0,1
0.904543,-0.109986,-0.031946,-51.531116,-10.802291,-71.936279,-84.176651,-61.353481,17.6576,-173.071533,-82.783699,0,0,1
0.694094,0.080932,0.075231,103.53759,38.449619,20.03319,-72.112717,-57.939762,19.680952,6.612297,-80.954605,0,0,1
0.591799,0.161254,0.231726,67.690262,1.915266,-35.310318,-63.685745,-57.881332,16.114611,14.236863,-64.497063,0,0,1
0.920901,-0.013307,0.176062,-21.531113,-25.306108,-91.111847,-64.559448,-60.811432,6.912314,-0.813118,-79.146439,0,0,1
1.462405,0.123656,0.276647,-30.019663,-25.489313,-32.226349,-66.144615,-63.684002,3.657453,4.749411,-78.293373,0,0,1
1.250735,-0.015016,0.210485,37.247509,53.136642,75.483574,-61.148533,-58.759323,11.281294,-0.678291,-80.423416,0,0,1
1.19092,-0.034059,0.023962,141.003235,165.304581,140.979752,-46.00182,-42.982235,25.520248,-1.637798,-87.997337,0,0,1
0.720461,0.511352,0.51444,-87.332642,101.793129,125.269829,-53.12574,-32.943233,38.172501,30.011513,-44.806362,0,0,1
0.621096,0.259887,0.016149,-330.06546,-19.962597,45.926323,-84.279121,-35.605362,42.811058,22.699114,-67.254646,0,0,1
0.581301,0.169555,0.109899,-36.47768,-2.86336,13.559908,-85.884254,-36.593327,44.180611,15.992526,-70.832924,0,0,1
0.820803,0.269164,0.07279,58.49942,-53.626717,-23.600397,-78.014511,-42.594173,41.79697,18.089407,-71.237007,0,0,1
0.906741,0.087768,0.222937,87.461258,-66.603813,-154.317963,-67.689919,-49.838711,26.210855,5.369754,-75.19883,0,0,1
1.091067,-0.093141,0.028356,18.102474,-65.306107,-131.066055,-64.641899,-57.003948,12.973184,-4.877676,-84.900703,0,0,1
0.933108,-0.066773,0.181921,71.491791,-5.122902,-72.211082,-56.353157,-57.936287,5.679864,-4.017732,-78.267563,0,0,1
0.931887,-0.107789,0.205847,68.423088,22.174809,-40.852303,-48.582458,-56.102684,1.553781,-6.443954,-75.999146,0,0,1
1.03052,-0.079225,0.152624,17.812399,28.419083,-20.424824,-45.934711,-53.778236,-0.509126,-4.348902,-80.526436,0,0,1
1.424319,0.014525,0.259313,15.415451,12.739694,29.666779,-43.478699,-53.035011,2.487219,0.574841,-79.66584,0,0,1
1.076174,0.151977,0.277136,-54.737221,42.816032,89.17823,-47.871269,-49.209026,11.49422,7.787317,-73.632538,0,0,1
1.039797,0.177855,0.172155,-91.42424,13.075571,140.598068,-55.771446,-48.462818,25.694626,9.578476,-76.609749,0,0,1
0.73218,0.171752,0.116003,-68.492943,23.823664,122.384331,-61.174553,-46.619392,38.055443,13.044491,-74.19487,0,0,1
0.531741,0.17932,0.029821,-8.401343,4.571755,68.262199,-60.410461,-46.657017,44.949924,18.608562,-71.126282,0,0,1
0.673586,0.196898,0.020788,40.49942,-14.939695,-20.760702,-54.867878,-48.675007,42.853092,16.287014,-73.619926,0,0,1
1.062014,0.237914,0.081335,137.110107,-82.496948,-96.82177,-39.947533,-57.400661,33.074093,12.591322,-76.68042,0,0,1
1.091311,0.092406,0.22196,96.636826,-47.260303,-139.081314,-29.488602,-62.481987,19.02688,4.743292,-77.57563,0,0,1
1.009036,-0.067018,0.334753,143.384918,-12.008398,-56.485893,-14.778731,-63.847088,13.321805,-3.607091,-71.30735,0,0,1
0.770999,0.056518,0.277624,82.438354,24.892365,-12.974442,-6.244501,-61.502762,12.011386,3.945404,-69.823158,0,0,1
0.851321,0.006225,0.204626,99.033775,24.770227,-33.737801,3.6909,-59.350521,8.603868,0.407322,-76.478584,0,0,1
1.346194,-0.069947,0.102575,10.01087,14.098473,-50.424824,4.548642,-58.462658,3.51096,-2.965791,-84.730736,0,0,1
1.216555,-0.052369,0.155065,9.888733,18.785496,36.078995,5.387553,-57.080769,7.154939,-2.445136,-82.337692,0,0,1
0.894778,0.048949,0.122106,-134.065475,-24.496948,55.81945,-7.927948,-59.996586,12.792704,3.102571,-81.636162,0,0,1
1.027346,0.097045,0.130651,-74.798286,-26.710688,102.18586,-15.065858,-63.06044,23.113476,5.353384,-80.998138,0,0,1
0.899172,0.316771,0.302038,44.377281,32.129009,149.040817,-10.002739,-59.899994,38.166599,18.467005,-64.044662,0,0,1
0.625491,0.36975,0.322302,-16.966228,26.358015,87.025558,-10.927582,-57.131016,46.956181,27.720922,-51.896828,0,0,1
0.621829,0.277221,0.179724,-50.126534,13.518319,-8.516428,-15.206862,-55.890717,46.09602,23.184753,-62.018009,0,0,1
0.941653,0.247191,0.005896,-3.042565,-11.458779,-65.997345,-14.90971,-57.412838,39.430286,14.708457,-75.28727,0,0,1
0.739993,-0.149293,-0.06344,19.568123,-17.611452,-137.264526,-16.047352,-56.074116,25.566568,-168.634323,-77.635818,0,0,1
1.385012,-0.223268,0.004675,-8.050199,-61.168701,-131.127121,-16.706362,-62.623924,12.322729,-9.157398,-80.840576,0,0,1
1.065676,-0.234498,0.227331,-156.21814,-31.657251,-43.111847,-32.07761,-65.964104,7.968432,-12.145062,-72.961075,0,0,1
0.901614,-0.039186,0.182653,-75.958595,-32.817554,19.437771,-39.003223,-69.458992,9.931647,-2.439112,-78.294266,0,0,1
0.903811,0.141967,0.384558,-158.508224,-45.077099,46.185863,-53.747818,-73.843613,14.596419,8.224373,-65.603218,0,0,1
0.871829,0.195678,0.327429,-206.401352,-44.298473,73.804184,-72.865143,-78.078796,22.050642,11.866116,-66.369591,0,0,1
1.046389,0.225707,0.315954,-130.447144,2.663358,73.208763,-84.086159,-77.646423,29.444727,11.667193,-69.64122,0,0,1
0.976077,0.249389,0.439489,-122.477676,39.487785,51.086628,-94.264992,-73.437584,34.604477,13.114507,-62.629292,0,0,1
0.735354,0.188842,0.537634,-200.111267,36.739697,24.995022,-111.952469,-69.376884,37.128975,11.711882,-52.227474,0,0,1
0.940432,0.13391,0.657751,-163.515854,46.648094,41.575176,-125.765114,-64.461761,41.328068,6.655424,-54.482235,0,0,1
0.952151,-0.015748,0.408728,-141.164703,123.67099,23.025557,-137.239716,-52.266617,43.653648,-0.870732,-66.752312,0,0,1
0.924075,-0.013795,0.248083,-95.576912,111.579391,2.338534,-143.971664,-41.676159,43.889839,-0.826023,-74.950195,0,0,1
0.888918,-0.136842,0.132849,-88.752487,65.854195,-7.539329,-150.050095,-35.882195,43.128368,-8.656859,-77.890556,0,0,1
0.771487,-0.277467,-0.022425,26.789497,40.938168,-2.043145,-147.602005,-40.619793,42.922012,-160.226486,-70.159309,0,0,1
0.945803,-0.39441,0.010046,62.056671,-15.122902,-55.035511,-138.960312,-42.651394,37.363426,-22.635515,-67.356735,0,0,1
0.733645,-0.177125,0.156042,-9.851725,-83.321373,-4.638565,-137.421967,-51.488796,36.894932,-13.286923,-72.164032,0,0,1
0.873293,0.038939,0.16361,87.552856,-92.787025,-4.806503,-125.957367,-61.225067,36.409473,2.509478,-79.099335,0,0,1
0.938235,0.141723,0.282995,60.056671,-102.420609,-37.432457,-117.329231,-71.565338,32.628796,8.228902,-71.358986,0,0,1
0.884524,-0.023805,0.308874,45.629189,-64.634354,-46.577496,-110.495377,-77.945496,27.924469,-1.45545,-70.698029,0,0,1
0.782229,-0.087281,0.212683,1.491787,-16.145803,-30.058413,-108.260719,-79.457146,24.888569,-6.145435,-73.622047,0,0,1
0.792239,-0.153199,0.07279,39.20171,24.342747,-29.203451,-102.433319,-77.016869,21.93902,-10.899688,-77.915817,0,0,1
0.931399,-0.169801,0.020056,26.071939,34.022137,-16.913374,-98.010643,-73.700981,20.23077,-10.329627,-79.597778,0,0,1
1.211916,-0.052369,-0.041224,-1.22577,34.846565,2.185863,-99.722298,-77.413116,20.451542,-177.527115,-86.852272,0,0,1
0.875735,-0.013795,0.033239,13.30858,42.495422,-3.921007,-96.428604,-73.411598,20.055521,-0.901822,-87.646767,0,0,1
0.786868,-0.017701,0.090368,14.942168,6.312213,-25.371389,-93.046669,-72.985085,17.493011,-1.280281,-83.32515,0,0,1
0.95386,0.051635,0.420446,68.071945,28.144274,20.231665,-84.391258,-70.060745,19.536409,2.835767,-66.054199,0,0,1
1.086428,0.020873,0.702429,74.789497,109.762596,115.391968,-75.28228,-58.937305,31.190998,0.924332,-57.103836,0,0,1
0.868167,0.034789,0.745397,82.316216,222.006866,127.040825,-65.594154,-36.770721,44.022121,1.741434,-49.320194,0,0,1
0.694583,-0.230592,0.65946,223.461243,229.74733,157.697311,-42.434814,-14.191601,59.949551,-13.536785,-44.834251,0,0,1
-0.041013,0.306518,0.748327,332.194061,53.838932,86.491203,-8.260669,-8.520723,68.685165,22.244066,2.903374,0,0,1
0.302004,0.321898,0.901403,-39.744854,-17.870993,-15.585131,-11.655272,-10.469414,67.111069,18.70656,-17.511677,0,0,1
0.141116,0.371215,0.860876,21.278048,13.075571,14.628611,-8.855043,-9.137007,68.588562,23.051056,-8.560086,0,0,1
0.237063,0.424682,0.810827,-25.76012,4.312213,23.956856,-10.693889,-8.817851,71.008202,26.68948,-14.520378,0,0,1
-0.426023,0.734496,0.813269,146.270401,61.335114,-64.394295,4.771043,-2.145664,64.504379,38.660526,21.24408,0,0,1
-0.27783,0.747191,0.592077,-43.271572,80.06794,-193.982071,1.368685,6.147327,44.912189,48.804115,16.247637,0,0,1
-0.083738,0.657592,0.50321,-55.134171,5.579389,-92.333221,-3.071924,6.69212,35.586533,52.197327,5.774572,0,0,1
-0.152341,0.579467,0.493444,-40.21814,-27.825191,-89.707268,-6.025432,4.030514,26.526098,48.292324,11.318751,0,0,1
-0.330808,0.61682,0.590124,-77.592178,-65.809921,-125.279785,-12.737858,-2.140312,13.87284,42.357113,21.182503,0,0,1
-0.332273,0.670043,0.794714,-102.691414,-77.2145,-157.325592,-21.889933,-9.385668,-2.017045,37.87833,17.726568,0,0,1
-0.276853,0.272094,1.029577,-16.340273,-1.519848,-270.363739,-22.783154,-9.056932,-29.323784,14.316925,14.572839,0,0,1
0.132815,0.012084,1.121374,200.056671,44.022137,-240.516434,-2.513618,-4.653567,-53.615944,0.613113,-6.754226,0,0,1
0.05054,0.119506,1.148229,94.148277,-35.260303,-107.646202,6.974174,-8.100696,-64.488213,5.936152,-2.506736,0,0,1
0.041506,0.145873,1.049108,-14.783023,-71.870995,-101.875206,5.529663,-15.097355,-74.777611,7.909816,-2.244071,0,0,1
-0.052488,0.097533,0.972937,-39.454781,-56.878624,-35.753067,1.628162,-20.363802,-78.388672,5.716303,3.072618,0,0,1
-0.086423,0.180053,1.071813,-43.851727,-34.130535,-10.974442,-2.554732,-23.243835,-79.497093,9.50573,4.546514,0,0,1
0.015139,0.169066,0.977331,-147.546387,-41.382442,44.872887,-16.911514,-26.892483,-74.964935,9.813191,-0.874473,0,0,1
-0.065427,-0.102174,0.978308,-119.836456,-20.725956,-28.043144,-28.55368,-28.329977,-77.797295,-5.949126,3.805492,0,0,1
0.21094,-0.317262,0.942663,-31.470045,3.212976,-33.447723,-31.461155,-27.684837,-81.175514,-18.182068,-11.973927,0,0,1
0.055178,-0.414918,0.794958,-33.302109,56.510689,-45.356121,-34.678284,-21.608135,-85.756485,-27.505283,-3.521146,0,0,1
0.008059,-0.203492,0.881628,-12.111267,-21.733589,-63.966808,-35.443424,-23.33737,-92.217133,-12.996535,-0.510318,0,0,1
0.293948,-0.228639,0.711218,-6.828824,-5.138168,-121.676735,-35.741405,-23.808764,-104.506485,-16.546673,-21.478149,0,0,1
0.028323,-0.139527,0.903601,44.209343,158.617554,-82.073685,-30.82621,-7.668108,-112.795929,-8.773624,-1.774296,0,0,1
-0.262449,-0.131959,0.656042,87.903999,-56.054199,-112.272156,-21.720516,-12.634698,-124.135414,-10.578386,21.414789,0,0,1
-0.14575,0.452514,0.482946,137.14064,6.983969,-206.394287,-6.874068,-11.442337,-144.981232,41.892918,12.419731,0,0,1
0.219485,1.315063,1.132604,223.43071,14.983969,-170.867569,16.353392,-9.874528,-162.238861,48.740242,-7.207543,0,0,1
0.086428,0.858275,2.009069,92.529961,102.174812,-44.012608,25.647202,0.390917,-166.684128,23.113066,-2.265459,0,0,1
-0.0249,0.582641,1.210241,19.873466,-41.519848,-8.928641,27.615385,-3.705296,-167.585922,25.702599,1.062022,0,0,1
-0.258787,0.651488,1.124792,-101.408974,55.869465,47.010292,17.614477,2.123966,-162.837875,29.443024,11.25982,0,0,1
-0.304197,0.931762,0.70487,-131.21051,29.854197,34.369072,5.285244,5.328333,-159.366592,50.513763,14.593874,0,0,1
-0.181882,0.668578,0.657019,-95.928055,-39.046562,16.888153,-3.426583,1.576555,-157.660889,44.442001,10.980872,0,0,1
-0.288083,0.3031,0.319616,-39.546383,-11.397711,43.391972,-6.569127,1.080586,-153.278305,35.161369,33.185471,0,0,1
-0.392576,0.376098,0.417028,48.102474,14.174809,5.651511,-1.010731,3.161118,-152.707504,33.291573,34.956123,0,0,1
-0.381589,0.65808,0.600866,131.522324,18.403816,-38.485893,12.882655,5.383126,-156.594574,42.754539,23.181057,0,0,1
-0.58325,0.84851,1.269079,115.491791,-38.023663,-100.867577,24.681967,1.930074,-166.782196,31.279308,20.909655,0,0,1
-0.174802,0.965697,0.740026,50.728428,42.953438,-27.295053,30.245089,6.306526,-169.539001,51.783062,8.176096,0,0,1
-0.155515,0.930297,0.580603,74.926903,146.235886,37.483574,38.19912,20.816256,-165.753159,57.133305,8.071553,0,0,1
-0.245603,0.748168,0.818395,45.888733,168.31221,57.81945,42.801315,37.309258,-159.913391,41.205688,12.489119,0,0,1
-0.422849,0.702758,1.147741,-21.454777,107.121376,38.246933,40.419281,47.514801,-156.050446,29.879288,17.442667,0,0,1
-0.376707,0.913939,0.945349,-112.584549,66.7855,15.407236,29.305813,53.494663,-154.494308,41.926907,15.98648,0,0,1
-0.351316,1.018432,0.66947,-137.073105,-2.817558,1.315634,16.220421,52.467487,-154.361435,53.411007,16.079903,0,0,1
-0.454099,0.845824,0.370886,-126.844093,5.640457,22.796549,4.446402,52.50008,-152.05899,55.270893,26.182425,0,0,1
-0.613767,0.715697,0.293249,-72.233398,-74.57328,1.849985,-1.863075,44.837486,-151.872147,46.455681,38.433743,0,0,1
-0.593748,0.68225,0.087194,35.659725,-75.474045,-54.241615,2.677082,37.286366,-157.350555,48.66473,40.802628,0,0,1
-0.433591,1.0614,0.567907,182.316208,-31.489313,-116.088951,21.790251,33.82,-169.075546,56.052597,19.808569,0,0,1
-0.382078,0.958129,0.918005,123.033775,85.182442,-59.340855,34.411079,41.896225,-175.06897,43.937439,16.06328,0,0,1
-0.249265,0.745727,0.790808,73.201714,-17.107635,-54.638561,41.807709,39.623306,-180.587463,41.967381,12.915915,0,0,1
-0.248289,0.652953,0.579382,61.339115,16.266411,0.598076,47.963089,40.75843,-180.527054,46.009441,15.877168,0,0,1
-0.471189,0.625365,0.770544,14.056672,7.823664,23.81945,49.089127,41.225624,-178.121292,34.698498,25.398676,0,0,1
-0.581785,0.957152,0.756384,-40.615086,127.808395,52.292736,44.989006,53.561516,-172.839722,45.087051,25.496269,0,0,1
-0.565183,1.225463,0.933386,-120.996758,100.052673,41.468307,33.079323,62.796463,-168.651428,48.317802,20.147894,0,0,1
-0.420164,0.988158,0.418005,-185.164703,192.281677,53.437775,15.271046,81.00029,-163.254211,59.045559,21.385454,0,0,1
-0.503171,0.865111,0.469519,-110.111267,196.663361,9.92632,5.096756,-80.612465,-162.251648,51.497299,27.075766,0,0,1
-0.439939,0.870238,0.714147,-58.279205,122.342751,-47.676731,0.147434,-66.463829,-167.067001,46.05452,21.345312,0,0,1
-0.163572,0.95935,0.610876,-45.928062,-11.245039,-76.913376,-3.269325,-66.083908,-174.835251,56.607418,8.184202,0,0,1
-0.113279,0.953979,0.402136,-76.721954,-10.985497,-11.615664,-9.47089,-65.724686,-176.008438,66.349426,6.244427,0,0,1
-0.426267,0.914672,0.261267,-6.492947,-81.53511,63.895786,-8.697367,-75.597786,-169.554962,61.338779,24.137651,0,0,1
-0.86865,0.62976,0.094519,75.339119,-132.939697,82.491203,-0.350724,-89.769119,-161.223343,35.781528,53.754597,0,0,1
-0.965574,0.968871,0.439489,153.003235,-66.954964,78.537003,15.648639,82.643593,-153.291107,42.404335,42.226501,0,0,1
-0.770994,0.94348,0.828894,137.064301,79.243515,51.651512,29.698475,89.465164,-148.07431,39.809177,31.546179,0,0,1
-0.660642,0.696654,0.756628,20.17881,-32.970226,-1.646198,31.796679,85.06675,-148.24057,34.743752,32.714062,0,0,1
-0.509519,0.731078,0.620397,1.125375,33.136642,-14.333221,32.118584,87.204994,-149.688232,42.322556,27.985855,0,0,1
-0.498533,1.222533,1.003454,-37.989132,55.869465,-28.150015,28.665932,-88.659248,-152.531387,47.494255,17.4951,0,0,1
-0.339597,1.034301,0.740026,-136.584549,75.564125,-9.569862,15.60926,-82.707718,-153.49794,51.789318,14.95062,0,0,1
-0.51196,1.137816,0.646032,-171.363174,181.365646,-16.898108,-0.582885,-62.674603,-155.204651,54.078442,21.369368,0,0,1
-0.332761,1.102172,0.606481,-160.599823,84.083206,-69.600395,-15.309684,-52.802235,-162.234283,57.885757,14.816144,0,0,1
-0.114011,0.837523,0.250036,-116.096001,11.304579,-38.562225,-25.05798,-50.478634,-166.129074,71.834633,7.431711,0,0,1
-0.262693,0.636596,0.217077,-50.645618,-29.489313,10.598076,-28.332937,-51.961235,-165.05867,61.839237,21.334095,0,0,1
-0.403806,0.90808,0.068151,101.476524,-113.886261,23.346169,-16.407614,-61.716194,-162.700714,65.726059,23.914131,0,0,1
-0.541013,1.12976,0.487097,226.957428,-115.306107,24.796549,7.528855,-75.020126,-160.196259,57.203514,23.737177,0,0,1
-0.821775,1.259398,1.0203,177.201706,33.380917,72.18586,25.795101,-73.277969,-152.905487,43.869884,26.885376,0,0,1
-0.546873,0.711791,0.756872,68.087212,-79.764122,-1.753069,32.76482,-82.752251,-153.08255,37.317451,27.760067,0,0,1
-0.57324,0.582397,0.666784,37.003235,-18.008398,-1.157649,36.442455,-85.821213,-153.199478,33.517521,32.922909,0,0,1
-0.584714,0.701537,0.724645,-7.805923,13.060305,9.346168,35.680882,-85.810036,-152.255508,36.995323,30.102205,0,0,1
-0.685056,1.028686,0.871374,-71.454773,35.457253,-18.928642,28.751936,-83.645523,-154.167297,42.863312,26.937326,0,0,1
-0.473386,0.948119,0.76444,-99.546379,96.770233,14.537007,19.254169,-75.569489,-152.699066,46.518623,21.240513,0,0,1
-0.360105,1.100463,0.521765,-142.263947,181.915268,27.849985,5.988881,-55.722691,-149.886215,60.054146,16.471859,0,0,1
-0.464597,1.044799,1.106237,-132.584549,136.678619,-42.363754,-6.433138,-40.740204,-154.164948,41.048801,16.978903,0,0,1
0.033694,0.861449,0.414831,-142.386078,6.70916,-19.554596,-19.113588,-39.301697,-156.139969,64.213142,-2.018263,0,0,1
0.002444,0.656371,0.261022,-80.920425,-15.138168,40.613346,-25.374571,-40.018002,-152.038025,68.31266,-0.198228,0,0,1
-0.248289,0.67224,0.512487,1.110107,-106.756485,39.575176,-23.762571,-49.457024,-148.040939,49.731552,16.368813,0,0,1
-0.503416,0.875609,0.915563,99.369652,-226.161072,-18.348488,-12.652427,-74.01989,-149.894135,39.96418,21.671436,0,0,1
-0.525388,0.382934,1.25028,33.720795,50.541222,85.804184,-8.746341,-70.699127,-141.227905,15.767622,21.889933,0,0,1
-0.411863,0.365355,0.823034,0.39255,43.823666,32.53701,-8.099518,-68.055901,-137.941666,21.652138,24.578398,0,0,1
-0.140623,0.580199,0.945104,-17.33264,39.945801,38.20113,-9.027778,-62.596416,-134.083359,31.266748,7.226688,0,0,1
-0.107908,0.451049,0.786413,-12.69142,18.556488,38.613346,-9.511291,-59.372005,-130.183411,29.60644,6.78781,0,0,1
-0.103025,0.545287,0.75614,-28.813557,55.74733,54.277466,-11.462081,-52.540569,-124.701385,35.547478,6.306305,0,0,1
-0.242917,0.882445,0.605749,-27.882257,59.854198,55.361439,-12.922344,-45.309654,-119.109879,53.514011,12.786801,0,0,1
-0.113035,0.84558,1.018591,15.858199,58.235878,18.078993,-10.303746,-38.541668,-117.283897,39.525433,4.880329,0,0,1
-0.370847,0.801635,0.933874,-37.897526,63.319847,-0.317954,-13.077116,-31.168064,-117.31601,38.582703,16.768534,0,0,1
-0.243162,0.755248,0.716345,-40.416611,-76.64962,-1.356122,-15.91695,-37.868511,-117.45298,44.952923,13.148448,0,0,1
-0.453367,0.365355,0.649938,-15.790656,-39.077099,-15.050778,-16.666529,-40.352951,-118.973106,24.752121,31.302292,0,0,1
-0.373289,0.381713,0.370397,15.79713,17.991602,-50.82177,-14.050103,-37.063847,-124.106102,35.974773,35.062145,0,0,1
-0.290037,0.639525,0.304235,121.583389,-3.596184,-141.600403,-0.601083,-36.233105,-138.407745,56.684734,22.270994,0,0,1
-0.258542,1.120971,0.890661,161.583389,-29.489313,-133.997345,16.412415,-38.222572,-151.941483,50.397583,10.236181,0,0,1
-0.297117,1.135619,1.368444,137.934525,-89.489311,-130.272156,30.517742,-46.126068,-165.098969,39.040897,9.485429,0,0,1
-0.152341,0.632445,0.595007,26.407818,-117.809921,-64.867577,33.438007,-56.665367,-171.650589,45.83852,9.95065,0,0,1
-0.376218,0.67102,0.646276,28.346748,-63.947327,-48.027878,36.413052,-61.421764,-176.501404,41.902203,21.990166,0,0,1
-0.543943,0.624633,0.608679,36.972702,-108.695419,17.636244,40.092804,-73.912987,-174.720139,37.422848,31.950806,0,0,1
-0.774656,0.546508,0.684606,12.820031,72.816032,56.567543,41.117123,-67.997665,-169.006821,27.862326,41.487019,0,0,1
-0.657957,0.606566,0.813757,-8.90516,78.06794,37.056095,40.015305,-61.851471,-165.26416,30.097822,32.953934,0,0,1
-0.488523,0.721801,0.785437,-23.454777,55.915268,22.52174,37.652782,-54.587826,-162.989471,37.966785,24.606091,0,0,1
-0.483396,1.151244,0.837683,-47.912796,63.228245,24.017923,33.156651,-46.862671,-160.56366,49.96661,18.753487,0,0,1
-0.257078,0.835326,0.608679,-111.088364,2.9229,28.185862,22.531113,-45.356758,-157.716888,51.65609,13.967667,0,0,1
-0.475095,1.002563,0.42362,-119.149429,96.174812,23.972122,11.438848,-34.458599,-155.2957,57.588448,23.581907,0,0,1
-0.489255,1.00476,0.770788,-86.737221,29.762594,-26.088947,3.579638,-30.401049,-157.930679,47.740799,21.123997,0,0,1
-0.312253,0.678832,0.155065,-66.019661,5.869465,-0.913374,-1.770268,-28.729006,-158.022934,62.815742,24.153151,0,0,1
-0.701169,0.609252,0.272741,51.430717,-46.787022,-30.882839,4.135763,-31.857233,-161.142105,39.000607,46.408573,0,0,1
-0.622312,0.890502,0.504431,181.797119,-145.016037,-144.546967,23.007849,-44.947739,-175.741348,48.026154,31.301897,0,0,1
-0.447019,1.007934,0.762976,181.934525,-54.771755,-134.333221,41.530346,-49.080605,-189.309006,48.73877,19.474297,0,0,1
-0.598386,0.828734,1.172888,152.682617,-41.428242,-121.921013,56.45599,-51.747166,-201.623032,32.186172,22.619839,0,0,1
-0.426267,0.714232,0.823767,55.995602,-204.680145,-120.043144,61.621273,-74.144386,-213.747391,37.597878,21.353951,0,0,1
-0.539792,0.435424,0.745642,20.010872,-243.886261,-107.17292,62.875828,80.238876,-224.571854,25.315054,32.011375,0,0,1
-0.140623,0.456176,0.674841,43.873466,-100.115265,-59.356121,66.630806,68.920586,-230.566818,33.495022,9.794793,0,0,1
-0.603513,0.298949,1.593542,-67.928055,-134.527481,-5.676733,58.773685,54.634979,-231.140167,9.950706,20.416821,0,0,1
-0.655271,-0.006959,1.585729,-142.599823,-211.092361,-84.562233,43.479034,33.097389,-239.680954,-0.232382,22.451689,0,0,1
-0.109617,0.09851,1.285192,-167.592194,1.594656,-18.226351,26.108526,32.690498,-241.52182,4.367346,4.860886,0,0,1
0.170413,0.291625,0.553259,-142.599823,-0.405344,-14.348489,12.006558,31.69173,-242.971024,26.736645,-15.241955,0,0,1
0.054446,0.045531,0.373327,-73.439507,-11.611451,7.117161,4.635013,29.743853,-242.252197,6.881408,-8.237295,0,0,1
0.108645,-0.436646,0.660925,16.39255,-51.107632,-31.96681,5.502833,23.934151,-245.48085,-33.100758,-7.809633,0,0,1
0.253176,-0.440309,0.93778,-24.172335,-24.603817,-26.50116,2.512511,20.745529,-248.157471,-24.384468,-13.732665,0,0,1
0.236575,-0.212281,0.557653,-53.561649,56.159542,-7.615664,-3.22552,25.456745,-248.926651,-19.312405,-21.627214,0,0,1
-0.036619,-0.328492,0.311071,4.865832,22.15954,-15.447725,-3.606656,27.233513,-250.486877,-46.363407,4.627533,0,0,1
0.059084,-0.339479,0.596472,60.575756,49.258778,-36.394287,1.870748,31.466066,-254.162704,-29.526024,-4.920451,0,0,1
0.187747,-0.546021,1.105505,89.903999,19.51832,-97.050781,10.212764,32.595512,-263.964844,-25.963264,-8.657841,0,0,1
0.151614,-0.585816,1.532751,-19.378441,59.121376,-80.5317,7.673951,37.689857,-272.098541,-20.823969,-5.278998,0,0,1
0.141848,-0.252809,1.441687,-40.584549,12.541221,-53.79887,3.30543,38.066685,-277.532227,-9.899196,-5.535346,0,0,1
0.156741,0.066527,0.816687,-67.057831,83.02977,-9.035512,-3.306585,45.307053,-278.444824,4.573923,-10.82924,0,0,1
-0.090574,-0.356324,0.745886,11.659725,-46.405342,8.628611,-2.593812,39.932774,-277.573334,-25.371992,6.252968,0,0,1
-0.122312,-0.696412,1.300329,-2.996763,-28.435879,-34.363754,-3.399898,36.414333,-281.044067,-28.067089,4.740076,0,0,1
0.014407,-0.363404,1.357946,-114.584549,73.014503,-53.493526,-14.973104,42.901279,-286.446899,-14.981231,-0.587179,0,0,1
0.000735,-0.457398,0.791784,-100.615082,33.777863,4.308,-25.232805,45.38567,-286.01178,-30.014187,-0.046046,0,0,1
-0.306394,-0.799439,0.726599,-43.668518,-40.496944,-6.195817,-29.958311,40.786259,-286.637543,-45.392624,15.834361,0,0,1
0.033694,-0.60315,0.734655,-53.714321,0.510686,-52.867569,-35.462917,39.980476,-291.977173,-39.3564,-2.030137,0,0,1
0.08887,-0.683473,0.382849,-58.325008,42.816032,-4.760702,-41.728649,43.289356,-292.458008,-60.099144,-6.472059,0,0,1
0.15967,-0.552613,0.599401,-33.82119,43.182446,-19.753069,-45.075638,46.476147,-294.453064,-41.69706,-11.081119,0,0,1
-0.065916,-0.737916,0.416784,-58.050198,56.251144,9.132427,-51.124691,51.203312,-293.530701,-60.237671,4.447392,0,0,1
-0.042966,-0.824586,0.223181,-13.683786,11.930533,-5.829405,-52.948425,51.417717,-294.119476,-74.590302,2.879369,0,0,1
-0.066892,-0.854859,0.379675,8.010871,24.373281,2.689679,-52.411057,52.88364,-293.847809,-65.725693,4.090442,0,0,1
-0.054197,-0.829469,0.341345,2.041405,41.609924,5.620977,-52.508369,56.013676,-293.28009,-67.379639,3.457769,0,0,1
-0.154783,-0.904176,0.408728,8.468886,58.72443,-1.004977,-51.903996,60.883266,-293.381592,-64.202156,8.866068,0,0,1
-0.108396,-0.863893,0.301794,4.148275,74.235878,-17.264519,-51.848026,67.148575,-295.125305,-69.635475,6.75543,0,0,1
-0.012937,-0.751832,0.348181,23.415451,66.953438,13.269832,-49.796116,72.450546,-293.785065,-65.135612,0.894555,0,0,1
0.00635,-0.37317,0.077429,58.514687,63.075573,47.590443,-44.573204,77.22567,-288.978424,-78.239815,-0.95456,0,0,1
-0.138669,-0.114137,0.115515,105.445992,-48.237404,71.514107,-33.890884,71.716515,-281.755493,-32.309597,40.494785,0,0,1
-0.130613,-0.01648,0.540808,182.820023,-106.756485,5.330901,-15.151475,59.986862,-281.217072,-1.696727,13.571677,0,0,1
0.343508,0.136107,1.424597,188.820023,-99.077095,-93.371391,3.947088,48.710526,-290.647583,5.306355,-13.497558,0,0,1
0.290286,0.033324,2.158667,142.453613,-77.962593,-3.157649,17.985737,39.866417,-290.966492,0.876539,-7.657975,0,0,1
0.041262,-0.008912,1.641638,3.598657,49.976337,156.842346,17.976,43.98695,-275.125427,-0.310946,-1.439793,0,0,1
-0.042722,-0.019654,1.030554,-7.973863,-15.550383,153.117157,16.805393,41.615505,-259.660583,-1.091652,2.373437,0,0,1
0.001223,-0.171754,0.874548,-4.508213,-39.092365,150.2164,15.800842,36.912262,-244.488724,-11.110994,-0.078632,0,0,1
0.013918,-0.1886,0.963171,31.598658,-28.924429,150.933945,18.390903,33.294827,-229.2444,-11.077848,-0.812477,0,0,1
0.160159,0.161254,1.165319,58.316212,35.503056,136.50647,23.951344,35.987968,-215.457245,7.80595,-7.752606,0,0,1
0.117678,0.144408,0.992224,11.064305,23.548855,129.880524,24.731939,37.465199,-202.33931,8.223845,-6.693841,0,0,1
0.192874,-0.073121,0.959753,53.995602,-0.420611,67.987389,29.496353,36.447643,-195.47258,-4.271722,-11.330917,0,0,1
0.112307,-0.067262,0.939489,-6.279205,-28.252672,47.529377,28.203588,32.786251,-190.672119,-4.066191,-6.799585,0,0,1
0.09717,0.061645,1.034948,20.957436,3.762595,23.178228,29.781759,32.395863,-188.331116,3.393786,-5.354294,0,0,1
0.018801,-0.065309,0.829382,15.522321,-14.313742,-8.77597,30.6325,30.305279,-189.217484,-4.501239,-1.294611,0,0,1
-0.031248,0.043578,1.074499,2.194077,29.548855,13.147695,30.283449,32.657207,-187.889572,2.321474,1.664384,0,0,1
0.005618,-0.042848,1.13944,6.026138,2.70916,0.918687,30.231176,32.266571,-187.796783,-2.153517,-0.282278,0,0,1
0.129153,0.119018,1.064001,24.224611,-10.710688,-23.401924,32.151035,30.423527,-190.160385,6.336363,-6.878456,0,0,1
0.20386,0.191283,0.965612,8.682627,1.487785,3.743115,32.586803,29.728313,-189.782333,10.969219,-11.7003,0,0,1
0.247317,-0.069215,0.712683,-13.912794,-13.397711,11.514107,30.453133,27.426546,-188.619415,-5.242279,-19.054779,0,0,1
0.129397,-0.060914,0.682165,3.369649,-24.787024,44.369072,30.07732,24.210617,-184.138138,-5.01377,-10.699006,0,0,1
-0.182126,-0.4115,1.004187,-78.218132,50.037407,147.727844,21.29455,28.86964,-169.217621,-21.959616,9.526772,0,0,1
0.118167,-0.643434,0.651159,-94.523476,-15.611452,183.239288,10.628843,26.599924,-150.710449,-44.194073,-7.355229,0,0,1
0.319338,-1.013307,0.972937,-152.584549,-65.199234,142.628601,-5.580535,19.358364,-136.304962,-44.699184,-12.807024,0,0,1
0.577639,-1.147828,0.725622,-161.85173,-136.176331,122.750748,-22.510231,5.031591,-123.907135,-51.061138,-23.043684,0,0,1
0.365725,-0.832643,0.6807,-86.187599,-86.512215,62.491207,-31.533623,-4.007641,-117.59552,-47.137386,-18.781071,0,0,1
0.228274,-0.691529,0.566198,-30.218136,-133.733582,59.468307,-34.865181,-17.450993,-111.589218,-48.561893,-14.327647,0,0,1
0.052493,-0.733277,0.541052,-22.172335,-124.878624,28.231665,-37.431488,-29.528393,-108.737823,-53.449768,-3.296777,0,0,1
-0.244382,-0.883424,0.595007,7.09484,-234.878632,51.529377,-37.059425,-51.927666,-103.533356,-53.940891,12.922401,0,0,1
-0.44824,-0.989381,0.714636,9.186443,-79.870995,3.590443,-36.399925,-58.391418,-103.170723,-49.548035,20.166479,0,0,1
0.009036,-1.156861,0.986608,28.820032,-51.886257,37.193497,-33.810123,-62.366104,-99.414177,-49.540207,-0.340493,0,0,1
0.282717,-0.879518,0.418737,89.705528,95.411453,-56.409557,-25.457357,-51.998646,-105.111542,-60.124611,-16.184372,0,0,1
0.118899,-0.934937,0.490759,31.568123,288.739685,-99.783607,-23.056131,-22.507711,-115.18969,-61.626667,-6.424613,0,0,1
0.031985,-0.815553,0.64237,71.140648,156.510681,-45.524059,-16.588303,-6.601423,-119.787621,-51.73978,-1.764687,0,0,1
0.115725,-0.643189,0.330603,47.965069,132.510681,-32.974442,-12.737513,6.464684,-123.118042,-61.427921,-9.091525,0,0,1
-0.072019,-0.776002,0.505163,-16.920425,73.045036,-24.272152,-15.290997,13.654338,-125.569527,-56.672516,4.447467,0,0,1
0.095217,-1.211061,0.747106,-35.454781,-134.89389,-12.134748,-19.656946,-0.047111,-126.795135,-58.122822,-3.828217,0,0,1
-0.422361,-0.652467,0.799841,38.331482,-48.817554,-51.79887,-16.185852,-4.433062,-132.026825,-35.804806,22.253445,0,0,1
-0.429929,-0.735719,0.706091,74.545227,-15.962597,7.330901,-9.317007,-5.467163,-131.286407,-41.667988,22.860846,0,0,1
-0.328855,-0.60193,0.59281,28.957436,70.480156,53.346169,-7.096506,2.04368,-125.898445,-41.602295,21.2687,0,0,1
-0.336912,-0.630494,0.819616,40.575756,26.922899,65.559906,-3.647017,5.02856,-119.276894,-35.431465,18.046249,0,0,1
-0.304197,-0.425416,0.614782,29.705528,36.174809,35.086628,-1.269974,8.951386,-115.733147,-31.807518,22.140759,0,0,1
-0.211912,-0.586793,0.670446,-38.584549,28.724426,29.773649,-5.860593,11.88308,-112.726006,-39.846119,13.378886,0,0,1
0.031497,-0.707154,0.337683,-105.027298,98.922905,-41.478256,-17.426538,21.390776,-116.915306,-64.377815,-2.301622,0,0,1
-0.102781,-1.103395,0.363562,-141.561661,64.098473,-114.882843,-32.511749,27.408543,-128.518478,-71.098412,5.055843,0,0,1
-0.188474,-0.977662,0.592077,-98.889893,-44.359543,-80.669098,-42.80088,22.656939,-136.666061,-57.562069,9.363734,0,0,1
-0.093259,-1.043824,0.395544,-51.958595,-28.802292,-55.936272,-48.46228,19.448465,-142.315628,-68.727676,4.775777,0,0,1
-0.219724,-1.15857,0.38236,-32.263939,-39.29084,-33.814137,-52.069748,15.374675,-145.73085,-69.16124,10.209335,0,0,1
-0.069089,-1.321656,0.35404,-22.920425,-122.97023,9.39197,-54.791702,2.953401,-144.782257,-74.734131,2.890668,0,0,1
-0.314695,-0.801637,0.250524,-5.134168,-3.321375,9.22403,-55.471123,2.976397,-143.850632,-63.353836,20.540678,0,0,1
-0.169675,-0.791871,0.296911,52.606289,-82.099998,59.269833,-50.487579,-4.982495,-137.86438,-66.642654,11.344741,0,0,1
-0.012693,-0.730103,0.04447,19.629192,-17.611452,-2.898107,-49.262444,-6.606144,-138.157089,-86.375648,0.994146,0,0,1
-0.178464,-0.892213,0.098425,-27.073097,0.129007,-59.08131,-52.499546,-6.236357,-144.124298,-77.13282,11.244816,0,0,1
-0.222654,-1.346559,0.074743,-43.103634,28.495419,-61.020241,-57.318073,-3.103658,-150.287338,-80.106102,9.374746,0,0,1
-0.265378,-1.427125,0.371862,-22.355541,41.10611,-15.890474,-59.829449,1.231115,-151.892273,-72.249329,10.20091,0,0,1
-0.157957,-1.053102,0.271276,-6.767756,164.342743,51.376705,-60.770763,17.638428,-146.703232,-73.401527,8.264417,0,0,1
0.005374,-0.972047,0.479528,-10.187603,165.625198,64.903419,-61.838531,33.673561,-140.14798,-63.740616,-0.284049,0,0,1
0.093997,-0.974732,0.453649,96.468887,72.587021,79.575172,-52.344841,40.084827,-132.110886,-64.578506,-4.996565,0,0,1
0.063967,-0.888307,0.295202,45.003235,72.38855,64.14006,-48.267929,46.369965,-125.632736,-71.220299,-3.909274,0,0,1
-0.001707,-0.959107,0.143347,18.194077,-4.298474,54.460674,-47.131702,45.019119,-120.13221,-81.498993,0.100826,0,0,1
0.026125,-1.119508,0.092321,-52.141804,-124.954964,-22.974443,-53.052094,31.724049,-122.452629,-85.101471,-1.332324,0,0,1
-0.30908,-1.072877,0.075476,-89.10363,-33.458778,-109.203453,-62.28017,28.098482,-133.482178,-73.482285,16.03331,0,0,1
-0.190671,-0.966187,0.402136,-8.340275,-153.412979,-39.371387,-63.165447,12.558208,-137.458694,-65.268066,10.325655,0,0,1
0.005618,-0.849977,0.282751,-15.042565,-46.405342,-27.295053,-64.822983,7.706656,-140.2155,-71.596527,-0.359316,0,0,1
-0.132078,-0.931031,0.32694,-9.622717,-59.703053,-51.447723,-65.864113,1.795587,-145.411713,-69.256737,7.623662,0,0,1
-0.1853,-1.113648,0.157263,-2.477679,-106.161064,-37.630928,-66.345848,-8.561031,-149.212433,-77.689003,9.355757,0,0,1
-0.360349,-1.48108,0.289099,-11.164702,-18.084734,-37.814137,-67.57753,-9.911229,-153.031662,-72.676056,13.430431,0,0,1
-0.281736,-1.14441,0.086218,-6.416611,97.243515,48.292736,-68.372345,0.188013,-148.154099,-75.562508,13.79271,0,0,1
-0.124021,-1.113404,0.333044,18.071939,52.72443,114.704941,-66.662086,5.524745,-136.568893,-72.297493,6.091383,0,0,1
0.022952,-1.042603,0.337194,63.507053,59.411449,136.384338,-60.4837,11.270797,-122.794075,-72.039169,-1.199919,0,0,1
0.124758,-0.859986,0.223181,50.575756,32.983971,102.949219,-55.736881,14.15027,-112.396202,-73.442184,-7.993133,0,0,1
0.118655,-0.696168,0.258093,20.636826,18.877098,31.407236,-53.935566,15.554128,-109.224068,-67.802788,-9.079712,0,0,1
0.212161,-1.228395,0.116735,-31.28684,-27.306108,-73.676735,-57.530586,12.345166,-116.665421,-78.848175,-9.755994,0,0,1
-0.224851,-1.206178,0.250036,-58.981499,-85.580917,-146.043152,-63.706406,3.834356,-131.415787,-74.422165,10.344626,0,0,1
-0.394285,-1.168092,0.261022,-56.187603,-47.077099,-117.53933,-69.352951,-0.537363,-143.287262,-67.961357,18.232988,0,0,1
-0.259763,-0.950318,0.226354,19.919268,-76.787025,-30.241619,-67.395714,-7.829183,-146.34166,-70.071358,14.890642,0,0,1
-0.181638,-0.936158,0.276647,6.850565,-11.35191,-8.516428,-66.780342,-8.585402,-147.201813,-70.530655,10.540513,0,0,1
-0.243894,-0.944459,0.167272,8.667359,23.258778,-9.26452,-66.039093,-5.826205,-148.137527,-72.612808,14.266784,0,0,1
-0.169675,-1.176148,0.22196,2.484153,35.396183,20.338533,-66.005173,-2.044796,-146.083328,-76.637489,8.068557,0,0,1
-0.051511,-1.437379,0.369177,2.667359,39.42672,22.20113,-65.93029,1.938316,-143.841019,-75.461838,1.987957,0,0,1
-0.013669,-1.103395,0.19071,3.003237,164.251144,41.056095,-65.917809,18.171116,-139.694351,-80.16925,0.699405,0,0,1
-0.023191,-1.005494,0.357702,7.262779,106.541222,75.422501,-65.288162,28.378042,-132.076675,-70.379128,1.244848,0,0,1
-0.008298,-0.934693,0.491735,-17.210503,102.129005,88.82708,-66.930855,37.928215,-123.105141,-62.248112,0.450172,0,0,1
0.114504,-0.839723,0.283483,14.041405,40.022137,49.300369,-65.602303,40.98381,-118.125801,-69.993896,-7.36162,0,0,1
0.067629,-0.774049,0.203161,11.400184,21.441984,-16.577496,-64.652611,42.189854,-119.800125,-74.537178,-4.83051,0,0,1
0.068118,-1.214723,0.049353,-23.928061,-90.390076,-70.470627,-67.44873,32.335106,-126.917656,-86.038704,-3.206959,0,0,1
-0.280027,-1.347779,-0.1943,-36.905163,-193.290833,-176.92865,-71.836464,51.052742,-144.787445,-104.191719,11.620483,0,0,1
-0.51074,-1.104859,0.413122,-83.637985,0.525953,-76.714905,-79.863541,50.551983,-152.535645,-59.265961,23.412048,0,0,1
-0.045896,-1.059205,0.196325,12.728428,-17.993132,1.666779,-78.590866,47.808773,-152.367294,-79.22274,2.439608,0,0,1
-0.134519,-0.895631,0.215612,-9.561648,69.838936,-15.081313,-79.448639,53.931416,-153.890503,-74.158791,8.307784,0,0,1
-0.122068,-0.920045,0.114538,-12.172336,99.823662,-2.058412,-80.658264,62.883343,-154.098404,-79.688553,7.500404,0,0,1
-0.023435,-1.092408,0.232946,-27.164701,136.006866,-5.004977,-83.291931,75.111671,-154.603912,-77.903503,1.201943,0,0,1
-0.026853,-1.230836,0.485632,-32.004398,113.579391,14.20113,-86.162651,84.874786,-153.169601,-68.438187,1.162622,0,0,1
0.061038,-0.960084,0.364538,25.659727,99.182442,95.437767,-83.278488,-83.473663,-143.53038,-68.944313,-3.401382,0,0,1
0.274661,-1.093385,0.418737,25.613924,64.342751,100.353798,-80.38549,-75.699593,-133.394653,-65.391846,-13.20214,0,0,1
0.272952,-0.891725,0.454138,29.522322,81.243515,57.666779,-77.04129,-66.449257,-127.570305,-59.281704,-15.256805,0,0,1
0.18262,-0.871949,0.243688,21.400185,106.480156,-21.371389,-74.797249,-54.808945,-129.728821,-70.748573,-11.404058,0,0,1
-0.016111,-0.916627,0.283972,3.247512,67.243515,-29.737803,-74.435089,-47.037766,-132.732346,-72.760941,0.961849,0,0,1
0.081301,-1.231324,0.222937,9.430718,0.037404,-40.852303,-73.594772,-46.16766,-136.858429,-79.091797,-3.717351,0,0,1
-0.206296,-1.007936,-0.091517,6.331481,-2.435879,-113.264519,-73.548599,-44.772785,-148.298141,-102.620796,11.520985,0,0,1
-0.20532,-1.276734,0.129187,-29.149433,41.396183,-83.661469,-76.547676,-39.598129,-156.747955,-79.241982,9.090243,0,0,1
-0.301023,-1.067018,0.017126,-3.363175,73.762596,-47.890472,-76.834038,-31.190086,-161.5849,-74.221176,15.752691,0,0,1
-0.232175,-1.034303,0.129675,-32.172337,93.808395,-10.07368,-79.993385,-21.029999,-162.602341,-75.580765,12.55661,0,0,1
-0.150388,-0.985719,0.160437,-42.630352,101.014503,5.590443,-84.161545,-10.439712,-162.037704,-77.423981,8.56357,0,0,1
-0.045164,-1.227906,0.304724,-62.050198,110.159546,6.017923,-90.138367,0.713565,-161.429901,-75.916519,2.044484,0,0,1
-0.078367,-1.038209,0.402868,-64.096001,116.205345,40.567543,-96.048431,12.281803,-157.332581,-68.430382,4.025282,0,0,1
0.036135,-1.005982,0.559851,-29.347908,103.090843,81.117157,-98.249374,22.204145,-149.13974,-60.852497,-1.797762,0,0,1
0.29468,-1.100465,0.582067,-1.424244,57.212978,82.903419,-97.612129,27.156662,-140.766495,-59.338436,-13.317156,0,0,1
0.342776,-1.054811,0.541052,25.904001,119.518318,35.437775,-94.270576,38.120911,-137.187286,-58.733364,-16.126976,0,0,1
0.192629,-1.004273,0.54862,62.102474,169.991608,29.834717,-87.436867,53.993164,-134.173981,-59.929977,-9.555027,0,0,1
0.228274,-1.049195,0.418737,92.591026,142.190079,30.017923,-77.834587,66.758797,-131.142166,-65.555588,-11.424013,0,0,1
0.207522,-1.051148,0.425085,81.965073,18.953434,24.094259,-69.480423,67.092201,-128.708649,-65.771408,-10.371743,0,0,1
0.04053,-1.224488,0.260046,84.423088,124.159546,-81.249252,-61.292007,78.002586,-136.914825,-77.869682,-1.854434,0,0,1
-0.158689,-1.22107,0.337194,110.804764,127.74733,-36.012608,-50.559269,89.229774,-140.552094,-73.027878,7.140265,0,0,1
-0.143796,-1.179078,-0.051722,82.194077,170.159546,-42.058411,-43.360207,70.741722,-144.799988,-97.384705,6.946647,0,0,1
-0.249021,-0.973512,-0.062708,28.865833,113.151909,-13.829405,-41.7314,58.413509,-146.196762,-104.777016,14.319947,0,0,1
-0.173582,-0.835084,-0.182581,-6.950962,-10.496947,-19.676733,-43.72052,58.513802,-148.184113,-106.787338,11.478654,0,0,1
-0.091794,-0.900758,0.141149,-65.760117,-96.313736,-36.516426,-50.943295,47.925373,-151.872269,-79.412262,5.749132,0,0,1
0.004153,-1.3761,0.311071,-76.828819,-148.25267,-95.768341,-59.074165,32.289448,-161.544876,-77.261116,-0.168653,0,0,1
-0.206052,-1.359986,0.463171,-68.78302,-16.954964,-113.310326,-66.091957,30.128691,-172.989212,-69.556992,8.161766,0,0,1
-0.282957,-1.041139,0.367468,16.743696,114.693893,14.598076,-64.432602,41.166012,-171.514801,-65.988945,14.374478,0,0,1
-0.177732,-0.95691,0.224157,21.323849,-3.535115,80.033188,-62.500435,40.197796,-163.431442,-73.355957,10.250575,0,0,1
-0.03198,-0.992311,0.182653,25.736063,-87.229767,133.468307,-60.291374,30.796146,-149.951141,-79.415291,1.815401,0,0,1
0.071292,-0.914186,0.140661,18.17881,-52.329006,88.201126,-58.890465,24.91255,-141.042831,-80.212852,-4.407449,0,0,1
0.114993,-0.879273,0.157995,-26.462412,-77.779388,33.056095,-61.881306,16.568998,-137.704163,-77.470093,-7.334777,0,0,1
0.170168,-1.373658,0.309851,-97.393707,-177.04657,-16.714901,-71.795082,-1.42426,-139.392365,-75.56839,-6.89042,0,0,1
-0.321042,-0.767457,0.238317,-30.905161,-281.641998,28.995022,-74.667801,-28.837168,-136.463867,-62.481419,21.776781,0,0,1
-0.000486,-0.928834,0.31156,-56.996765,-189.122894,40.872887,-80.245125,-46.97924,-132.335709,-71.456932,0.028413,0,0,1
0.111575,-0.810182,0.299597,-19.851725,-86.069466,-44.577496,-81.974464,-54.706009,-136.838043,-68.465759,-7.35998,0,0,1
-0.16699,-0.782594,0.568395,-13.027298,-139.412979,-46.806503,-82.681908,-67.21508,-141.565506,-52.874535,9.795444,0,0,1
0.036379,-1.435914,0.069128,-48.447147,-55.382442,-111.096581,-87.561287,-71.381531,-152.786255,-86.886086,-1.449621,0,0,1
-0.747312,-1.436646,0.596716,49.598656,66.953438,-40.043144,-82.027786,-66.413658,-156.830612,-56.349869,25.659077,0,0,1
-0.254636,-1.186646,-0.296839,-32.126534,167.777863,77.208763,-85.731934,-85.056854,-149.032532,-108.241058,11.759345,0,0,1
-0.117673,-1.156861,0.642126,11.339115,104.098473,141.727844,-84.106224,-72.950401,-134.718018,-60.563877,5.08229,0,0,1
0.116946,-1.016725,0.363806,92.484154,29.014503,164.811813,-74.658043,-68.743156,-118.072021,-69.401077,-6.180921,0,0,1
0.19092,-0.789918,0.287878,45.888733,51.808399,94.82708,-69.950409,-62.496181,-108.494484,-66.380096,-12.794098,0,0,1
0.166995,-0.895631,0.245153,1.003237,45.869465,-9.111848,-69.885612,-56.91,-109.41478,-71.675491,-10.195057,0,0,1
0.040042,-1.218385,0.272497,-62.676151,-72.374809,-83.569862,-76.236832,-62.972198,-117.855339,-77.262032,-1.836964,0,0,1
-0.15405,-1.290406,0.012731,-38.85936,-96.054199,-122.959175,-80.221779,-71.084061,-130.274216,-83.169189,6.807493,0,0,1
-0.146726,-1.040162,0.265173,-28.721952,-123.412979,-84.592766,-82.935364,-85.322128,-138.818085,-73.756088,7.783461,0,0,1
-0.12158,-1.020387,0.193396,-36.569283,-50.89389,-78.45536,-86.443909,87.880379,-146.742081,-77.381096,6.67702,0,0,1
-0.287351,-1.099244,0.231237,-38.416611,-17.321375,-67.417191,-89.946541,84.695282,-153.551224,-71.451454,14.349075,0,0,1
-0.188962,-1.276246,0.352575,-4.737221,18.037403,13.498839,-90.068451,84.949165,-152.187836,-72.597183,8.122136,0,0,1
-0.019773,-1.172975,0.17655,40.789494,64.38855,39.453041,-85.857498,-86.757545,-148.203079,-81.387688,0.954994,0,0,1
0.204836,-1.186646,0.304968,-29.699053,159.976334,63.81945,-88.535919,-69.377769,-141.757309,-72.798012,-9.491216,0,0,1
0.156008,-0.859742,0.613562,14.209344,154.983963,89.269829,-86.431427,-52.817944,-132.741058,-53.633335,-8.402035,0,0,1
0.187747,-0.737428,0.331091,54.331482,60.816032,92.216393,-80.579071,-46.003532,-123.4272,-62.699818,-13.07572,0,0,1
0.197268,-0.915895,0.286169,12.850565,8.342748,50.033192,-79.079918,-44.49004,-118.373848,-69.218712,-11.617112,0,0,1
0.265627,-1.121705,0.357702,-2.920427,-42.420609,15.453038,-79.154121,-48.053307,-116.813087,-68.336937,-12.713812,0,0,1
0.025393,-0.84192,-0.08761,-13.515847,-26.298473,-106.256889,-80.832504,-44.523582,-127.545036,-96.183479,-1.718296,0,0,1
-0.187253,-1.441773,0.14945,-95.760117,65.854195,-173.508789,-90.305504,-36.96764,-145.069427,-80.5653,7.360985,0,0,1
-0.298582,-1.117799,0.056433,-40.431877,68.190079,-84.85231,-93.997177,-29.180088,-153.639511,-74.791962,14.937259,0,0,1
-0.344724,-1.021119,0.174108,-59.347908,146.754959,-39.844669,-99.377151,-13.702541,-157.663818,-69.282883,18.407005,0,0,1
-0.182615,-0.945436,0.238317,-59.576916,111.686264,23.514107,-104.734169,-2.161618,-155.288895,-72.381889,10.608327,0,0,1
0.03345,-1.050904,0.403601,-57.363174,114.648094,62.827087,-109.695786,9.195443,-148.943359,-68.924965,-1.701957,0,0,1
-0.110105,-1.182252,0.901647,-37.775391,174.541229,46.155331,-112.290169,26.37233,-144.281677,-52.464283,4.2352,0,0,1
-0.120359,-1.222779,0.814733,41.384914,161.487793,74.063721,-107.068863,41.9226,-136.801239,-56.038647,4.682826,0,0,1
-0.003416,-1.22107,0.653356,146.621552,45.136642,109.697311,-91.651878,45.5546,-125.721809,-61.849834,0.141308,0,0,1
0.152102,-0.946412,0.210485,108.713165,101.533592,79.483574,-80.551529,54.514988,-117.69397,-74.655998,-8.915964,0,0,1
0.035159,-0.810426,0.136267,11.965069,121.441986,11.178229,-79.359169,65.396027,-116.564972,-80.148903,-2.449759,0,0,1
0.116946,-1.130006,0.272497,-22.874624,-23.718321,-31.875208,-81.542038,61.625568,-119.78437,-75.296204,-5.745049,0,0,1
-0.08447,-1.119996,0.039587,-56.53875,-56.848091,-138.516434,-87.212173,54.852444,-133.774536,-85.238731,4.310407,0,0,1
-0.178708,-1.174439,0.43778,-69.485313,-73.122902,-99.447731,-93.706978,46.679981,-143.818756,-68.069366,8.114615,0,0,1
-0.151121,-0.955689,0.137731,7.69026,-44.680153,-60.088943,-92.630127,41.501846,-149.887741,-77.923706,8.895219,0,0,1
-0.121824,-1.02942,0.27738,-15.378442,-55.031296,-45.982075,-93.771706,35.355186,-154.531937,-73.601105,6.518723,0,0,1
-0.232664,-1.074098,0.283972,-26.813557,-6.588551,-36.211082,-95.972878,34.232506,-158.189255,-71.130203,11.827825,0,0,1
-0.131345,-1.457643,0.216101,-13.637984,47.36565,-13.921008,-97.006462,38.337982,-159.595276,-80.157761,5.093527,0,0,1
-0.177244,-1.121461,0.067663,-4.477679,77.900002,17.315634,-97.1175,45.461067,-157.84639,-80.398071,8.965106,0,0,1
-0.084714,-1.069703,0.267126,-32.554016,156.693893,52.017925,-99.90374,60.149281,-152.592575,-75.319763,4.393677,0,0,1
0.163333,-0.921754,0.419714,-27.027296,128.190079,69.254562,-101.860023,71.451332,-145.59787,-63.959587,-9.161002,0,0,1
0.395022,-0.822633,0.592321,-56.172337,119.167175,39.147697,-106.365265,84.991669,-141.643951,-49.124962,-21.290209,0,0,1
-0.024167,-0.829225,0.64945,14.621557,128.983963,15.239298,-103.828972,-80.315041,-140.104782,-51.912643,1.314419,0,0,1
-0.107175,-1.135377,0.492712,66.453621,106.38855,29.544641,-96.49588,-68.079414,-137.120773,-66.053459,4.949118,0,0,1
-0.319578,-1.203736,0.322302,73.903999,128.174805,31.666779,-88.637756,-53.743412,-133.922424,-69.340523,14.383772,0,0,1
-0.221921,-1.091187,-0.094935,59.980335,164.46489,36.063728,-82.977608,-68.718208,-130.279984,-102.473175,11.453689,0,0,1
-0.256589,-0.965699,0.136511,49.384914,29.701527,51.300369,-77.894936,-64.109192,-125.098648,-73.249977,14.739796,0,0,1
-0.104734,-0.749635,0.073522,42.224609,37.991604,18.491205,-73.763901,-58.908283,-123.231033,-80.312889,7.915997,0,0,1
-0.201414,-0.732545,0.206335,8.911634,30.098473,-18.928642,-72.77684,-54.454502,-125.14283,-68.514519,14.823618,0,0,1
-0.629636,-0.873414,0.415075,8.163543,18.464884,-28.77597,-71.497101,-50.876392,-128.04921,-49.191334,33.068382,0,0,1
-0.658445,-1.150514,0.121374,36.453617,49.732063,-39.264519,-67.655029,-44.34346,-132.014923,-59.802864,29.646229,0,0,1
-0.696531,-0.969605,0.044714,11.155909,0.495419,-44.730167,-66.282753,-42.694294,-136.532669,-54.252007,35.663315,0,0,1
-0.263181,-0.822877,0.046423,-37.989132,28.281679,-11.997344,-70.157417,-38.686897,-137.7444,-72.007866,17.709467,0,0,1
-0.145505,-1.047242,0.286901,-69.378441,-42.542747,-18.928642,-77.079834,-41.971397,-139.656189,-72.924202,7.63238,0,0,1
-0.008054,-0.861451,0.196325,2.28568,-94.191605,22.659145,-76.855026,-50.444611,-137.367615,-77.151093,0.522284,0,0,1
0.054202,-0.823609,0.1453,-1.851725,-92.145798,8.140061,-77.087944,-58.63047,-136.545471,-79.336441,-3.708102,0,0,1
0.133547,-1.053834,0.269567,-34.996765,-144.573288,-15.844671,-80.491524,-71.907715,-138.145782,-74.067711,-6.999306,0,0,1
0.190188,-1.405396,0.260778,-60.141804,-131.947327,-57.753067,-86.375847,-83.68129,-143.978836,-77.065704,-7.579014,0,0,1
-0.101072,-1.123658,0.347937,-67.470039,-122.954964,-114.82177,-92.769081,82.32048,-155.575836,-72.128281,4.911016,0,0,1
-0.207517,-1.027467,0.528601,-23.424244,-32.63435,-52.11948,-94.453651,77.647552,-160.839905,-61.070827,10.181534,0,0,1
-0.144529,-0.821656,0.210241,42.300945,-83.764122,-9.432458,-89.832634,67.997047,-161.792587,-72.750237,9.670835,0,0,1
-0.172361,-0.915406,0.21195,22.529955,-17.993132,-8.28742,-87.273628,65.064041,-162.629623,-73.383186,10.394558,0,0,1
-0.211423,-1.067506,-0.072962,36.972702,9.457252,15.804183,-83.905258,63.050224,-161.033401,-101.833176,11.177241,0,0,1
-0.136716,-1.506227,0.13529,12.194077,81.884735,48.674416,-82.674637,69.99749,-156.117279,-82.7229,5.165696,0,0,1
-0.020261,-1.083375,0.124304,38.133007,54.449619,27.71258,-78.914124,74.008255,-153.318314,-83.369034,1.064436,0,0,1
0.075686,-1.232057,0.711706,39.018501,146.190079,54.964489,-74.670723,-89.462914,-147.766907,-59.847088,-3.04489,0,0,1
0.242678,-1.100465,1.238073,155.094833,98.281677,74.017921,-58.647957,-78.112427,-140.291092,-41.096703,-8.334792,0,0,1
0.345461,-0.739381,0.653112,247.903992,-5.886261,-23.493526,-33.837872,-77.518791,-142.66394,-45.020576,-19.299166,0,0,1
0.068118,-0.617799,0.332067,212.850555,-30.588552,-65.279785,-13.3181,-79.107018,-149.257202,-61.246731,-5.547083,0,0,1
-0.20825,-0.505982,0.793005,83.522324,26.800762,0.292733,-5.418299,-74.622482,-149.227631,-31.680075,12.482944,0,0,1
0.028811,-0.413209,0.829382,25.736063,-8.16107,3.086626,-3.291963,-73.973434,-148.915878,-26.469305,-1.780911,0,0,1
-0.275144,-0.134645,0.908483,-16.157068,26.922899,-43.127113,-4.986816,-69.49559,-153.271713,-8.073283,16.677607,0,0,1
-0.049802,-0.14734,0.949499,-20.447144,-23.962597,-19.737803,-7.087112,-70.418152,-155.265228,-8.808685,2.967028,0,0,1
-0.124265,-0.185182,0.959509,-20.523479,-17.993132,-52.073677,-9.193488,-70.645805,-160.524673,-10.835247,7.24698,0,0,1
0.027834,-0.279664,0.943884,-9.286839,59.716793,-59.630928,-10.258776,-63.354515,-166.547394,-16.49729,-1.619568,0,0,1
-0.055662,-0.169801,1.092077,16.209345,28.22061,-92.043144,-8.62573,-59.236488,-175.84375,-8.82655,2.883176,0,0,1
-0.081541,-0.198365,1.031042,-6.599816,-0.161069,-116.50116,-9.323607,-57.978889,-187.610367,-10.857147,4.440751,0,0,1
-0.146726,0.004027,0.897741,116.49942,-68.848091,-50.882839,2.399051,-63.448257,-192.749527,0.253666,9.282213,0,0,1
0.147952,0.136352,1.000524,73.674995,-75.077095,12.063725,9.796982,-69.777138,-191.531097,7.677987,-8.335652,0,0,1
0.233157,0.267943,0.755407,92.087212,-68.359543,38.796551,19.090288,-75.472206,-187.61264,18.72275,-16.219364,0,0,1
0.383059,0.277953,0.695837,4.560489,20.64809,-13.050778,19.54561,-72.460556,-188.930771,19.286558,-27.077217,0,0,1
0.303713,0.280639,0.907019,-45.332642,75.289314,15.437771,14.994703,-63.913986,-187.371552,16.351501,-17.73875,0,0,1
0.115481,0.093627,0.887976,-49.744854,19.655724,40.033192,9.890445,-60.837566,-183.328201,5.969053,-7.369316,0,0,1
0.091555,0.06433,1.118444,-27.393709,-19.993132,26.781282,7.046825,-61.693176,-180.623291,3.280931,-4.672077,0,0,1
-0.028562,0.069701,0.969763,7.522321,30.32748,1.514107,7.732634,-57.423847,-180.470367,4.109258,1.682682,0,0,1
0.08301,-0.006959,0.955603,-72.096001,-15.412977,-3.692,0.433605,-57.900234,-180.843262,-0.415672,-4.964515,0,0,1
-0.093259,-0.078492,0.932165,-13.164702,73.976334,15.697313,-0.973897,-49.306187,-179.257828,-4.789392,5.693182,0,0,1
-0.179197,-0.104371,0.721472,-40.584549,-2.97023,-44.791233,-5.131318,-48.337845,-183.781738,-7.991992,13.810497,0,0,1
-0.314695,0.029418,0.984655,1.262779,22.64809,-15.26452,-4.8711,-44.775059,-185.323456,1.630102,17.716417,0,0,1
-0.372312,-0.225709,0.954382,-35.592182,-11.764123,-14.531694,-8.545097,-44.628201,-186.791153,-12.425233,20.788551,0,0,1
-0.352292,-0.245973,1.238317,35.537586,-22.664886,-1.875206,-5.073009,-45.667183,-186.980545,-10.81621,15.591293,0,0,1
-0.400632,-0.289674,1.324499,-7.195236,42.449619,5.911054,-5.920202,-40.222939,-186.38353,-11.823422,16.462091,0,0,1
-0.23657,-0.236451,1.144812,35.858196,64.052673,7.239298,-2.48125,-32.849735,-185.652359,-11.434832,11.440646,0,0,1
-0.34863,-0.238404,1.12528,-1.179969,73.869469,24.308001,-2.777229,-24.543911,-183.19725,-11.440562,16.861479,0,0,1
-0.271482,-0.265992,0.907263,8.270412,94.648094,21.178228,-2.216854,-14.364342,-181.058243,-15.688767,16.021179,0,0,1
-0.345945,-0.23108,0.617224,23.003239,75.090843,-4.241618,-0.257382,-6.09066,-181.486649,-18.086351,27.69519,0,0,1
-0.506833,-0.130738,0.653356,-7.332641,-5.214504,36.979759,-1.15771,-5.739804,-177.751694,-8.984522,37.258755,0,0,1
-0.455564,-0.102662,0.807409,9.064305,-18.832825,11.98739,-0.363753,-6.904347,-176.54097,-6.319127,29.236742,0,0,1
-0.539304,-0.088014,0.85819,-14.615085,-30.359545,13.636244,-1.902336,-9.131024,-175.163712,-4.962811,32.0112,0,0,1
-0.537351,0.000609,1.071813,-7.622717,-17.611452,3.239298,-2.618203,-10.159051,-174.836548,0.02912,26.626781,0,0,1
-0.603269,-0.15735,0.931677,-50.950962,5.457251,7.498839,-7.77034,-8.764574,-174.079163,-8.068755,32.556904,0,0,1
-0.645994,-0.210328,0.772253,4.209344,-49.306107,-16.714901,-7.434285,-12.691458,-175.767365,-11.799613,38.907207,0,0,1
-0.463376,-0.125611,0.817907,1.262779,-13.336642,-1.493527,-7.312827,-13.172735,-175.918213,-7.610909,29.24769,0,0,1
-0.393308,-0.121217,0.84281,-13.332641,-25.306108,4.384336,-8.634748,-14.918225,-175.475388,-7.425599,24.792692,0,0,1
-0.428953,-0.12317,0.525915,15.47652,-3.611451,42.750751,-7.135918,-14.208232,-171.157562,-10.286554,38.454578,0,0,1
-0.444822,-0.15027,0.713415,-32.660885,-37.077099,43.620979,-10.428651,-16.966194,-166.751846,-10.133861,31.388319,0,0,1
0.037112,-0.212037,0.765905,118.25515,-91.53511,-10.730168,1.175673,-25.740488,-167.835587,-15.457222,-2.673674,0,0,1
0.227786,-0.346314,0.908239,33.46125,-153.840454,-10.88284,4.058218,-40.716583,-168.934753,-20.29685,-13.188786,0,0,1
0.356936,-0.162721,1.263464,-6.080732,-101.657249,10.231664,3.23388,-50.277336,-167.901352,-7.065128,-15.652435,0,0,1
0.5022,-0.089234,1.029577,-25.515846,-33.641983,19.361435,0.554559,-53.120022,-165.945847,-4.454235,-25.91748,0,0,1
0.29468,0.003051,0.806677,25.30858,-20.16107,32.872887,3.052582,-54.454506,-162.625687,0.203532,-20.06719,0,0,1
0.430178,0.084594,0.869177,27.8582,-24.634352,8.017923,5.848638,-56.32822,-161.815872,4.985155,-26.224791,0,0,1
0.532961,-0.055543,0.818151,7.201711,-45.947327,-7.401923,6.379376,-60.409939,-162.563461,-3.255682,-33.02087,0,0,1
0.641848,-0.083375,1.041052,-27.653252,-24.542749,7.132427,3.436671,-62.262455,-161.843079,-3.899927,-31.573652,0,0,1
0.365237,-0.128541,1.06986,-4.874625,-24.893894,9.620977,2.755709,-63.85569,-160.871353,-6.48691,-18.724073,0,0,1
0.813967,-0.365113,1.263952,15.751328,72.632828,12.246931,3.986647,-56.024273,-159.634415,-13.650759,-31.744663,0,0,1
0.817629,-0.648316,0.995642,145.766586,181.579391,54.552277,17.800646,-37.621754,-154.124634,-26.712381,-34.534733,0,0,1
0.336672,-0.330445,0.963415,-65.989128,200.403824,98.598076,10.554199,-17.399178,-144.166229,-17.941553,-18.291502,0,0,1
-0.17407,-0.226197,0.626257,-108.218132,134.678619,132.323273,-0.752069,-3.427692,-130.801575,-19.187727,14.650561,0,0,1
-0.43408,-0.162721,0.53446,-30.95096,75.762596,125.620972,-4.06649,4.896767,-118.113853,-13.296791,37.846169,0,0,1
-0.680906,-0.336061,0.116735,-22.263937,-20.634352,125.346169,-6.707658,4.004722,-105.453888,-25.940704,62.413933,0,0,1
-0.363035,-0.09485,0.607458,4.041405,-66.344276,113.315628,-6.326165,-2.030915,-94.00901,-7.633887,30.560774,0,0,1
0.0376,0.062621,0.679479,-64.569283,-79.336639,194.964493,-12.485559,-9.906117,-74.317596,5.25753,-3.153986,0,0,1
0.445315,0.250609,1.198278,-313.088379,-194.680145,150.414871,-43.003502,-29.377224,-59.125694,11.091681,-19.989298,0,0,1
0.648684,0.611693,1.549597,17.980337,-154.771759,20.14006,-39.963585,-44.534485,-57.091549,20.007898,-21.274736,0,0,1
0.912844,0.189574,0.809118,78.270416,-183.68779,-38.241615,-31.240433,-62.778934,-60.953953,8.833775,-47.686081,0,0,1
1.002444,0.43933,0.917761,197.568115,-147.932053,-10.562229,-10.702065,-77.057137,-62.020737,17.913349,-44.573086,0,0,1
0.812991,0.30017,0.791784,-50.340275,-77.901527,-45.295052,-15.174394,-84.103371,-66.595535,14.8156,-43.833988,0,0,1
0.942141,0.04724,0.574499,-67.775383,-69.2145,-58.837036,-21.530287,89.557045,-72.538078,2.451338,-58.540112,0,0,1
0.738284,0.031859,0.729528,-47.912796,-36.710686,-35.096577,-25.806927,86.825996,-76.082832,1.758168,-45.314472,0,0,1
0.708987,-0.006227,0.40238,31.171177,27.655724,20.750748,-22.214218,-89.781563,-73.987007,-0.437614,-60.420326,0,0,1
0.924075,0.265258,0.707556,63.369648,29.243511,24.430138,-15.240822,-86.105927,-71.519562,12.839193,-50.72612,0,0,1
0.908694,0.2489,0.555944,82.942169,103.609924,44.995026,-6.463365,-75.251801,-66.975067,13.151239,-56.165134,0,0,1
0.826174,0.297729,0.458288,77.125374,130.831299,13.437771,1.649599,-61.927395,-65.617851,17.491362,-56.515705,0,0,1
0.66675,0.209105,0.325964,30.224611,94.938171,-28.424824,4.922943,-52.48888,-68.488762,15.735219,-59.850655,0,0,1
0.621584,0.107543,0.278601,-57.393711,14.846564,-30.470627,-0.676909,-51.256355,-71.566292,8.971857,-64.338318,0,0,1
0.380129,0.306029,0.50028,-104.966225,-109.168701,-8.043145,-10.533549,-61.695755,-72.378647,25.969051,-32.950386,0,0,1
0.54468,0.296508,0.900915,-133.241043,-107.61145,-47.554592,-23.196484,-71.710587,-77.181664,15.72963,-29.867987,0,0,1
0.684573,0.543822,1.564489,135.491776,53.212978,-49.875206,-8.968295,-65.458473,-82.219063,17.664156,-22.45587,0,0,1
0.355959,0.038207,0.852575,52.987968,70.144279,35.040825,-3.496819,-57.659237,-78.679939,2.368064,-22.640642,0,0,1
0.418215,-0.150514,0.473425,156.14827,66.770233,117.285095,11.760635,-50.69899,-66.834145,-13.402005,-40.092705,0,0,1
0.596438,-0.091432,0.514196,227.247513,28.953434,130.460663,33.885933,-47.795067,-53.657616,-6.622705,-48.793476,0,0,1
0.611086,-0.161256,0.957067,28.942169,15.899999,106.598076,35.911266,-45.909294,-42.891209,-8.082567,-32.195518,0,0,1
0.938479,-0.237916,1.096228,52.194077,104.999237,144.323273,40.17197,-35.396618,-28.314558,-9.362006,-39.916588,0,0,1
1.288577,0.075316,0.963659,181.293304,151.930542,146.491211,57.366543,-20.713108,-13.518945,2.679931,-53.125397,0,0,1
0.676028,0.15808,0.507116,74.194077,154.846573,93.529373,63.774845,-6.008967,-4.072478,10.595114,-51.841778,0,0,1
0.359377,0.097289,0.338415,49.995602,82.159546,25.39197,67.670898,1.33168,-1.507889,11.149331,-45.584248,0,0,1
0.25342,0.062621,0.232214,0.468886,-10.100001,35.956856,66.570396,-0.624597,2.123754,10.325191,-46.497356,0,0,1
0.30176,0.302855,0.598181,-79.699051,-116.710686,20.537008,57.836868,-12.648747,4.197992,24.324562,-24.230936,0,0,1
1.041262,-0.255982,0.886267,-59.408978,-228.878632,-82.272156,50.587761,-36.019402,-4.111496,-10.6035,-48.461033,0,0,1
0.582034,0.463988,1.194128,114.270416,-41.916794,5.101893,61.271557,-39.936607,-3.596205,19.253176,-24.433348,0,0,1
0.433596,0.161254,0.785925,3.781863,-37.535114,-60.455357,60.624146,-43.420872,-9.702196,10.184566,-28.388716,0,0,1
0.52759,0.212768,0.676306,88.606293,-8.909162,-46.623295,68.460541,-44.167377,-14.411149,13.931157,-36.654747,0,0,1
0.602542,0.151977,0.575231,49.003235,-1.794657,-15.737803,72.148453,-44.368912,-16.000668,10.339172,-45.362309,0,0,1
0.924807,0.379271,0.820837,121.690262,72.449615,16.231665,83.091423,-37.22337,-14.361269,17.051767,-45.644772,0,0,1
0.987795,0.3656,0.467565,72.071945,127.945801,92.124794,88.933212,-24.994823,-5.056664,18.496775,-58.999798,0,0,1
0.499026,0.320434,0.279821,22.026138,107.335114,77.49884,89.919739,-14.861951,2.770719,29.252161,-49.552734,0,0,1
0.483889,0.309447,0.226843,38.346748,10.419083,37.743114,92.518349,-14.565197,6.582773,30.07222,-51.588326,0,0,1
0.662844,0.371459,0.449255,13.125374,-122.32901,-7.004977,92.464859,-27.355423,5.87527,24.886196,-48.670216,0,0,1
0.798342,0.410766,0.531286,-20.386076,-83.275574,-24.821772,89.061508,-36.049522,3.368271,23.187498,-49.929668,0,0,1
0.969973,0.420287,0.532507,-34.523483,-52.084732,-53.905739,84.279099,-41.584511,-2.076208,20.797977,-55.031666,0,0,1
0.70679,0.356811,0.379431,-56.981499,-30.252672,-12.272153,77.433067,-44.819485,-3.315696,23.979115,-53.612789,0,0,1
0.498538,0.404906,0.519323,10.133008,-30.634352,-8.546962,77.474495,-47.697842,-4.178939,29.355951,-37.127914,0,0,1
0.599124,0.169066,0.49613,25.36965,1.487785,4.506474,78.681328,-47.573002,-3.723785,12.262139,-48.818829,0,0,1
0.826663,0.378539,0.691931,100.49942,56.831299,42.582809,87.442101,-41.923302,0.577079,19.34827,-46.345978,0,0,1
0.885012,0.401,0.675085,78.865837,118.602287,54.430138,93.895638,-30.313978,6.074523,19.811855,-48.419903,0,0,1
0.763186,0.170775,0.605017,-43.210506,121.74733,23.727848,87.939667,-18.667564,8.471036,9.94573,-50.520805,0,0,1
0.714846,0.15393,0.455114,35.644459,118.892365,23.81945,89.914864,-7.648153,10.876801,10.295151,-56.09536,0,0,1
0.573,0.214721,0.353063,4.224611,73.594658,27.804184,88.888603,-1.29483,13.685023,17.69429,-54.202057,0,0,1
0.406008,0.203002,0.203405,-4.279205,-10.390078,36.369072,87.168999,-3.391523,17.358299,24.086168,-54.709068,0,0,1
0.548342,0.416869,0.56156,-10.447145,-114.741219,-9.462993,84.951042,-15.442737,16.402536,27.97403,-38.097984,0,0,1
0.814944,0.354613,0.631384,-41.17997,-141.122894,-61.249249,79.555672,-30.069748,10.216362,18.982206,-48.375992,0,0,1
1.226809,0.319213,0.60819,48.270412,-161.672516,-43.310318,83.004814,-46.685825,5.84202,13.122584,-60.756207,0,0,1
0.84595,0.440795,0.82279,56.270412,-58.008396,-28.653831,87.324005,-52.337494,2.947983,20.481981,-42.185543,0,0,1
0.643313,0.263305,0.365515,-27.943327,71.579391,-28.424824,83.203476,-45.305786,0.077075,19.588869,-54.998489,0,0,1
0.526858,0.367309,0.314245,-71.729584,29.319847,-21.829405,75.057838,-42.446869,-2.127695,30.91116,-47.463768,0,0,1
0.480959,0.269408,0.138708,-61.149437,-8.329009,-2.623298,68.069908,-43.578091,-2.392648,28.289665,-57.787811,0,0,1
0.503665,0.57849,0.373815,35.736061,-23.107635,39.712582,71.099373,-45.717255,1.618323,42.685207,-36.176659,0,0,1
0.850588,0.674926,0.657019,-38.966228,-32.832825,38.59808,66.463043,-48.894371,5.516729,32.127197,-42.083439,0,0,1
1.084231,0.41516,0.598913,49.308578,35.304581,56.85762,70.384933,-45.543919,11.259349,18.529686,-56.094097,0,0,1
0.91675,0.40808,0.573522,62.255146,89.900002,11.575175,75.552757,-36.784393,12.428442,20.675177,-52.4827,0,0,1
0.902834,0.345824,0.368933,-10.034931,126.022141,-22.394291,73.438919,-24.789972,10.166618,19.523504,-60.747013,0,0,1
0.734622,0.198852,0.246862,-36.034931,113.991608,-21.020245,68.691223,-14.344474,8.043573,14.390837,-66.659721,0,0,1
0.52051,0.220336,0.177771,-8.172336,73.228249,-24.241619,66.945107,-8.038611,5.59517,21.830484,-61.458,0,0,1
0.500002,0.258178,0.177282,-44.584549,-21.443512,-34.684364,61.712238,-11.159084,2.092049,25.950687,-57.938351,0,0,1
1.082034,0.317748,0.280798,-86.752487,-137.245041,-55.356121,52.20858,-25.892422,-3.49892,15.867426,-68.600128,0,0,1
1.11011,0.268676,0.655798,-15.851726,-193.367172,-59.524059,49.830826,-45.662968,-9.51085,11.770926,-57.44558,0,0,1
0.838625,0.22058,0.561071,-28.996761,-75.2145,-69.508797,46.210743,-53.280205,-16.531239,12.331498,-54.288288,0,0,1
0.549563,0.029418,0.322546,-85.210503,-80.680153,-43.264519,36.905254,-61.390064,-20.900955,2.643227,-59.487049,0,0,1
0.565676,0.161742,0.515661,-67.470039,-94.084732,5.636245,29.727596,-70.400917,-20.331694,11.93146,-46.307404,0,0,1
0.738528,0.414672,0.699011,-55.531116,-61.977859,29.788916,24.080278,-75.972687,-17.323013,22.18512,-42.260593,0,0,1
1.02051,0.864623,0.724157,-13.637984,51.42672,10.506474,22.941645,-70.205826,-16.26186,34.642899,-42.140446,0,0,1
0.916506,0.674926,0.549841,10.178809,92.999237,-55.997341,24.135748,-60.526112,-21.917591,32.27187,-46.473251,0,0,1
1.022219,0.627807,0.391394,90.407822,178.922897,-35.569862,33.198334,-42.687908,-25.510147,29.836674,-54.105358,0,0,1
0.755862,0.316039,0.20072,12.148275,150.663361,-49.295052,34.176884,-28.19449,-30.488947,22.004215,-63.649979,0,0,1
0.443606,0.156127,0.05863,-22.95096,59.564121,-33.875206,31.606354,-23.122869,-33.910343,19.234667,-69.396378,0,0,1
0.280276,0.315307,0.105017,-40.584549,-36.848091,6.995023,27.886997,-27.110489,-33.203846,46.491447,-40.1427,0,0,1
0.764651,0.613158,0.725378,-66.370804,-166.267944,-14.60803,21.363657,-43.802204,-34.679256,30.18903,-38.836079,0,0,1
0.831301,0.665893,1.159704,-213.989136,-151.122894,-34.531693,0.256087,-58.521633,-38.166958,25.017456,-31.866507,0,0,1
0.640383,0.237426,0.898229,46.392548,55.167175,-32.943905,5.085827,-52.582298,-41.494293,12.146376,-34.577213,0,0,1
0.317629,0.20642,0.699255,-33.775391,75.335114,-5.661466,1.9419,-44.544792,-42.066101,15.043921,-23.54055,0,0,1
0.176028,0.313109,0.785192,-66.691414,63.212978,-7.554596,-4.272826,-37.632336,-42.829117,21.261486,-11.76307,0,0,1
0.296145,0.078246,0.604772,-15.286839,55.335114,31.453037,-5.567903,-31.920671,-39.652359,6.62791,-25.90271,0,0,1
0.321536,0.308715,0.87113,27.522322,24.846563,64.414871,-2.364587,-29.206604,-33.146458,18.38994,-19.182869,0,0,1
0.606936,0.380736,0.95072,5.47652,-19.932062,0.292733,-1.402186,-31.208401,-33.11689,18.652182,-30.652666,0,0,1
0.201418,0.285277,0.285192,216.987961,37.42672,-5.783603,20.888351,-27.410418,-33.701035,39.251156,-26.534016,0,0,1
0.509524,0.238891,0.171179,107.064308,-95.29084,26.720213,31.547054,-37.494576,-31.002293,23.962255,-60.024002,0,0,1
0.857424,0.222289,0.367468,65.781868,-170.298477,56.124794,37.695267,-54.868713,-25.333689,13.403072,-63.394421,0,0,1
0.94678,0.252562,0.370397,-7.485312,-101.809921,68.50647,36.479492,-65.141724,-18.414536,13.951284,-64.661949,0,0,1
1.40845,0.34558,0.335974,-85.118896,-105.229767,60.888153,27.593302,-75.676704,-12.264832,13.423426,-71.10878,0,0,1
1.02344,0.431029,0.422399,-142.660889,-131.977859,92.18586,13.346282,-88.415802,-2.954059,21.271128,-59.473244,0,0,1
0.792483,0.444213,0.366735,-9.60745,-47.107632,54.659145,12.667663,87.610046,2.566514,26.962582,-53.987434,0,0,1
0.53345,0.443236,0.325476,-67.088364,-20.145803,15.361435,6.480855,86.5812,4.11802,35.347656,-44.129921,0,0,1
0.68262,0.462523,0.330114,15.247512,14.464885,-7.982077,8.488089,88.876831,3.31183,31.38265,-50.224354,0,0,1
0.788821,0.357055,0.264929,38.056671,49.060307,-35.890472,12.549649,-85.65657,-0.313108,23.223679,-60.592876,0,0,1
1.324221,0.443725,0.455114,124.911636,60.00687,-34.363754,25.014069,-79.291138,-3.783847,17.582905,-64.358994,0,0,1
1.112795,0.32849,0.442419,138.300949,113.090843,-57.615662,38.509605,-67.784714,-9.603029,15.339456,-63.656235,0,0,1
0.967288,0.3031,0.428015,176.606293,127.961067,-87.905739,55.5397,-54.994095,-18.481508,15.989676,-61.533272,0,0,1
0.808352,0.114379,0.290808,62.987968,110.296944,-103.157654,60.815132,-44.354309,-28.900433,7.583908,-68.86451,0,0,1
0.731692,0.02893,0.285192,0.224611,74.098473,-74.928642,59.663261,-37.505077,-36.468227,2.109747,-68.606178,0,0,1
0.708987,0.002807,0.157507,-27.195236,34.220612,-9.890473,55.782642,-34.917271,-37.467167,0.221416,-77.472794,0,0,1
0.964358,0.347777,0.109167,-70.676147,-32.924427,120.643875,48.065762,-38.863674,-25.282135,19.714748,-69.29438,0,0,1
1.083987,0.686156,0.038122,-12.477679,-124.206871,140.781281,46.515759,-51.532928,-11.063225,32.317532,-57.626553,0,0,1
1.010745,0.562621,0.276159,-4.340275,-132.023666,118.582809,45.720524,-64.733925,0.913639,28.233961,-58.197769,0,0,1
0.739504,0.500854,0.412145,6.224611,-74.939697,69.040825,46.034401,-71.831696,7.886763,30.608824,-48.745625,0,0,1
0.710208,0.425414,0.452185,-48.935696,-34.191601,10.537007,40.806187,-74.756165,8.951001,26.806442,-48.840908,0,0,1
0.953372,0.445678,0.526647,13.278046,1.365648,-2.119481,41.749405,-74.208031,8.736934,22.254038,-54.108219,0,0,1
1.181155,0.600951,0.510046,7.003237,83.732063,-86.699638,42.108341,-65.561745,-0.01973,25.036999,-56.283665,0,0,1
1.20093,0.336303,0.090856,152.652084,125.304581,-82.546967,56.687714,-53.324341,-8.356974,15.601711,-73.823891,0,0,1
1.054202,0.283812,0.245153,137.842926,124.281677,-126.974442,69.491524,-41.364792,-21.181393,14.69347,-70.416954,0,0,1
0.833743,0.160033,0.24613,12.60629,117.014503,-124.058411,69.558083,-30.36743,-33.711292,10.430872,-70.601524,0,0,1
0.52051,0.067016,0.151647,-12.920427,25.380915,-54.470623,67.028992,-28.694517,-39.212826,7.046621,-72.332062,0,0,1
0.772708,0.404906,0.389196,-173.225769,-17.107635,5.315634,49.044117,-30.893724,-38.675945,25.079493,-53.989311,0,0,1
0.56885,0.700316,0.764196,-333.973877,-93.962593,5.926321,15.732898,-40.151417,-38.077385,36.319851,-28.757584,0,0,1
0.522463,0.189818,0.550817,-36.065468,-28.48168,-0.18055,12.129235,-43.005199,-38.095619,14.037745,-41.88475,0,0,1
0.375979,0.384154,0.734411,-40.248672,-29.061832,5.453038,8.402179,-45.509651,-37.544861,24.967117,-24.400681,0,0,1
0.398196,0.43225,0.835241,-42.828827,5.258778,-27.417191,4.495724,-44.537907,-40.313995,25.039333,-22.948025,0,0,1
0.52344,0.2406,0.796179,-67.485313,23.472519,-52.027878,-1.990458,-41.96751,-45.56881,14.171507,-32.18354,0,0,1
0.822024,0.223021,0.907019,-46.492947,-3.962596,-46.989708,-6.346008,-42.347382,-50.31477,10.32564,-41.350307,0,0,1
0.597903,0.048217,0.614782,9.415451,45.991604,-19.218718,-5.222786,-37.830479,-52.255859,3.218021,-44.11475,0,0,1
0.896243,0.492797,1.032263,-62.263939,47.243511,-86.394295,-10.884748,-33.159298,-60.981682,19.823359,-38.079586,0,0,1
0.71509,0.048217,0.368933,-26.401342,104.358017,-151.737808,-13.211675,-23.416986,-76.307198,3.429207,-62.511505,0,0,1
0.468508,0.172729,0.38822,68.835304,-21.641985,-143.371399,-5.817158,-26.046644,-90.787712,15.848269,-47.793694,0,0,1
0.978518,0.497436,0.9932,-7.561648,-143.977859,-258.455353,-6.056565,-40.604183,-116.891701,19.635149,-41.377106,0,0,1
0.854495,0.049926,0.564489,-58.752491,-129.779388,-232.104218,-11.694936,-53.766624,-140.334229,2.790973,-56.448036,0,0,1
0.684329,0.011352,0.357458,45.293312,-152.084732,-135.661469,-6.961058,-68.99279,-154.036041,0.842353,-62.407902,0,0,1
0.898928,0.083861,0.403356,19.8582,-230.313736,-41.737801,-4.758973,88.283051,-158.251556,4.864981,-65.377846,0,0,1
1.093752,0.347777,0.577429,3.674993,-219.993134,52.20113,-3.985937,67.175377,-152.979248,15.705303,-58.354759,0,0,1
0.957766,0.374633,0.52445,-65.531113,-189.214508,76.063721,-10.013762,49.582169,-145.296814,18.936312,-56.062042,0,0,1
0.755374,0.654174,0.712438,-120.019661,-95.412979,68.643875,-21.048803,38.386772,-138.363785,32.211609,-37.988945,0,0,1
0.691897,0.773314,0.481481,-94.309738,-14.206871,60.017925,-29.111938,35.468491,-132.301971,42.53336,-37.21772,0,0,1
0.730715,0.686889,0.414831,-42.462414,43.075573,-2.913374,-31.947329,38.176304,-132.596222,39.265167,-42.321724,0,0,1
0.82886,0.65515,0.538122,-11.195236,41.976337,-40.928638,-31.745634,40.680553,-136.730011,33.542717,-44.352146,0,0,1
0.701174,0.401488,0.432409,66.331482,93.319847,-36.608028,-24.02557,51.705383,-140.427429,25.983202,-49.918358,0,0,1
0.746829,0.41516,0.455603,68.591026,94.327484,-48.82177,-16.248173,62.598495,-145.358429,25.387203,-50.465851,0,0,1
0.72925,0.339721,0.351599,2.529955,62.205345,-50.852303,-15.217514,69.980392,-150.494507,22.764055,-56.16106,0,0,1
0.807864,0.442748,0.222448,18.17881,49.42672,-24.546963,-12.5568,75.903488,-152.973755,27.851206,-58.477882,0,0,1
0.952639,0.490111,-0.057825,3.888733,10.037404,21.575176,-8.864393,75.739639,-150.794662,152.818039,-62.613773,0,0,1
0.588137,0.504272,-0.220179,153.659714,-55.535114,87.575172,9.34686,82.383591,-141.94957,141.236237,-46.906498,0,0,1
0.81177,0.587279,0.255651,44.758961,-87.825188,91.54464,14.282312,74.608467,-132.703568,34.607399,-51.725487,0,0,1
0.685305,0.357055,0.265417,-85.989128,-80.206871,75.208763,6.003717,67.637253,-125.107483,25.912783,-57.008492,0,0,1
0.699954,0.346557,0.315954,-24.034929,-43.794655,62.872887,3.990429,64.426147,-118.757324,24.288197,-56.17812,0,0,1
0.683108,0.519164,0.295202,-88.859352,-12.939695,32.14006,-4.186652,64.480103,-115.511177,34.901436,-48.837654,0,0,1
1.037112,0.628539,0.293493,-5.393709,3.441984,31.727848,-4.031821,66.006729,-112.306664,30.24847,-56.222904,0,0,1
1.032961,0.705199,0.275671,88.056671,76.480156,-25.493526,5.432849,74.781433,-114.881508,33.409294,-53.758392,0,0,1
1.031741,0.537719,0.187292,230.697891,114.587021,-90.5317,28.701641,87.005501,-124.025208,27.148552,-61.106323,0,0,1
0.907229,0.368041,0.302038,84.926903,51.594658,-133.478256,36.954716,-87.273956,-137.506516,21.051981,-62.309677,0,0,1
0.859133,0.146605,0.301062,22.758963,26.892365,-118.394295,38.651272,-84.240791,-149.46434,9.148474,-68.70591,0,0,1
0.834231,0.117797,0.300573,10.148275,18.174809,-74.256889,39.034061,-82.133926,-156.964279,7.567124,-68.844498,0,0,1
1.007815,0.167846,0.145544,21.69026,12.113739,-27.249252,40.587486,-80.843597,-159.716461,9.360136,-77.568672,0,0,1
0.711917,0.316771,-0.037317,-63.088367,-58.512215,135.178223,36.652092,-74.75251,-146.063461,156.042236,-65.866051,0,0,1
1.052493,0.454223,-0.034876,0.820031,-35.67252,166.537003,39.133572,-71.058495,-129.243225,156.667923,-66.595169,0,0,1
0.870608,0.53308,0.032507,-69.531113,-57.138168,162.2164,32.097942,-76.462326,-112.859367,31.461697,-58.47316,0,0,1
0.818362,0.683471,0.219274,-34.523483,-48.939693,119.407234,28.816719,-80.752052,-100.799232,38.893566,-48.746056,0,0,1
0.786868,0.697387,0.241003,-22.080732,-3.336642,44.109528,26.860409,-80.404091,-96.34417,40.278782,-46.841141,0,0,1
1.142825,0.740844,0.282263,-14.034931,16.266411,-43.554592,25.577703,-78.290962,-100.743187,32.184055,-55.250408,0,0,1
1.247561,0.487426,0.197302,-5.378443,71.655724,-135.004974,24.955832,-70.975555,-114.378693,21.101938,-67.144691,0,0,1
1.387209,0.399535,0.093542,137.50705,95.793129,-183.982071,38.387817,-61.544872,-132.960876,16.032587,-73.521675,0,0,1
1.078127,0.190062,0.107702,50.850563,59.655727,-179.921005,42.852238,-55.980156,-151.132904,9.949389,-78.545448,0,0,1
0.620852,0.003295,0.058874,14.071939,17.548855,-112.745438,43.394089,-54.81506,-162.520187,0.302713,-84.574539,0,0,1
0.320559,-0.060182,-0.038538,-13.256305,-22.985497,-0.073679,45.025269,-52.992298,-162.527634,-169.441376,-77.432358,0,0,1
0.796633,0.070434,0.12821,-69.805923,-82.542747,102.811813,37.315147,-61.694431,-152.143646,4.98875,-79.594902,0,0,1
1.857852,0.458617,0.525427,-172.034943,-207.077103,210.50647,19.808069,-82.34552,-130.882492,13.362208,-69.424171,0,0,1
1.201418,0.679564,0.400671,-30.706686,-86.985497,194.43013,16.936905,89.557365,-111.245049,28.217209,-56.709862,0,0,1
0.764651,0.520873,0.429479,-177.225769,-54.771755,24.20113,-0.329502,84.973724,-108.800735,30.70694,-48.559109,0,0,1
0.555911,0.262816,0.255651,-149.943329,-23.932062,-2.165282,-14.699409,83.373581,-109.019432,23.244705,-56.593426,0,0,1
0.642825,0.420531,0.251745,-78.294472,8.205342,10.995023,-21.528061,85.064751,-107.908936,31.347528,-52.676128,0,0,1
0.788577,0.551391,-0.015101,-45.928062,34.525955,-0.913374,-22.742605,82.445511,-108.001183,145.042831,-55.027798,0,0,1
1.168704,0.622924,-0.046106,66.056671,44.816032,-3.997343,-12.710249,78.723175,-108.404915,151.960693,-61.877186,0,0,1
1.010989,0.534545,0.019812,109.430717,57.716793,-50.928638,-1.067343,85.219193,-113.548706,27.862425,-62.116779,0,0,1
0.834963,0.313598,0.132116,127.445992,49.212978,-86.577499,11.975673,-89.370621,-122.293037,20.353209,-67.82653,0,0,1
0.905032,0.40393,0.364294,140.407806,-1.138169,-89.966812,26.083549,-88.875732,-131.379684,22.491152,-58.993458,0,0,1
0.854739,0.293334,0.446081,-71.668518,3.701526,-141.340851,18.806572,-87.892052,-145.655106,16.922071,-58.010376,0,0,1
0.744631,-0.023805,0.185095,-81.851723,14.770228,-88.974442,10.293218,-86.190865,-154.641525,-1.776992,-75.930351,0,0,1
0.533694,0.057006,0.048376,22.056673,4.006869,33.010292,12.391966,-85.710953,-151.30748,6.072155,-82.025284,0,0,1
0.882815,0.169555,0.076696,-60.569283,-77.565651,115.49884,6.36562,86.763893,-139.64209,10.832088,-78.096519,0,0,1
1.748293,0.476928,0.387487,-119.760117,-142.54274,216.979752,-5.317277,73.107048,-117.727135,14.913568,-70.634254,0,0,1
0.942874,0.705199,0.372351,17.8582,-66.023666,155.132431,-2.746843,67.714363,-102.058762,34.824238,-49.776066,0,0,1
0.793215,0.489379,0.189489,-75.439507,-16.680153,61.682049,-9.539574,67.178841,-95.828873,30.966761,-56.511765,0,0,1
0.67261,0.456908,0.000524,81.323853,20.403816,44.582809,-0.615576,70.3386,-91.326012,34.188511,-55.811462,0,0,1
0.599856,0.262572,-0.001429,50.468884,-8.191604,13.727847,7.519339,72.01545,-89.939499,156.359833,-66.359467,0,0,1
0.755862,0.13684,0.174108,110.942169,-29.245039,-14.562229,18.550112,69.807053,-91.410286,10.00508,-73.67083,0,0,1
1.067141,0.135863,0.35819,166.07193,-5.809925,-35.264519,34.754551,70.0308,-94.972,6.882166,-70.252434,0,0,1
1.287112,0.181762,0.361608,95.21698,11.976335,-52.150013,43.638882,71.964699,-100.239151,7.742078,-72.544762,0,0,1
1.126956,0.321898,0.351599,133.690262,18.571754,-134.256882,56.30381,74.622192,-113.799095,15.252217,-67.071854,0,0,1
1.406497,0.207885,0.441931,0.636825,8.861832,-197.707275,55.401291,76.189865,-133.767532,8.026166,-70.85125,0,0,1
1.244875,-0.038453,0.298376,-85.439507,63.167175,-200.608032,45.802052,82.990074,-154.028946,-1.720554,-76.41407,0,0,1
0.587649,-0.084596,0.00614,78.224617,65.197708,-76.959175,52.464859,89.74781,-161.801819,-8.191363,-81.786949,0,0,1
0.381838,0.018188,-0.120813,31.751329,5.838931,18.964489,58.106297,89.529778,-159.886398,177.399841,-72.257164,0,0,1
0.96509,-0.074342,-0.071253,-74.309738,-85.825188,127.422501,53.276855,-81.844032,-147.016724,-175.607056,-83.909637,0,0,1
1.424075,0.446898,0.139929,-186.126541,-118.878624,264.063751,34.135399,86.590294,-120.346283,17.344244,-71.797066,0,0,1
1.324221,0.734496,0.667272,76.682632,-149.122894,162.048462,41.569752,72.635239,-103.979385,26.350626,-53.153,0,0,1
0.68262,0.475463,0.260046,-78.06546,-5.916795,63.376705,33.672634,73.16581,-97.578339,33.059933,-51.553993,0,0,1
0.611331,0.54016,0.265905,33.797131,-36.222137,13.422503,37.124744,70.808472,-96.222664,39.01622,-45.437649,0,0,1
0.990969,0.424682,0.206579,119.094841,7.716793,-61.432457,48.62545,72.465721,-102.427345,22.759661,-64.519226,0,0,1
1.47803,0.177367,0.34281,15.384916,15.686258,-92.104218,49.30909,74.661743,-111.729874,6.667577,-75.364502,0,0,1
0.975344,-0.114137,0.345983,307.674988,95.335114,-83.264519,78.650711,84.814423,-120.139587,-6.293633,-69.51767,0,0,1
0.907473,-0.193727,0.518591,255.613922,42.877102,-67.249252,102.168358,89.78981,-126.931763,-10.500536,-58.615181,0,0,1
0.706545,0.084594,0.310827,127.720795,102.205345,-61.020241,112.891884,-79.59951,-133.094803,6.254228,-65.490494,0,0,1
0.818606,0.164916,0.275427,16.713161,-6.817558,-55.08131,112.504517,-80.054062,-138.65802,10.810027,-68.586838,0,0,1
1.064944,0.075072,0.128454,-75.118896,-1.703054,-17.295053,102.899231,-80.262474,-140.404816,4.003421,-82.046722,0,0,1
0.994387,0.221068,0.047888,32.636826,26.892365,65.636246,104.322037,-77.539116,-133.775558,12.519884,-77.18486,0,0,1
0.874514,0.247191,0.014685,-9.851725,-11.000765,76.124794,101.576103,-78.560982,-126.086952,15.781434,-74.190018,0,0,1
0.781008,0.127318,0.09696,-27.515846,-17.153437,55.422504,97.00486,-80.256012,-120.489281,9.189467,-78.419922,0,0,1
0.664553,0.255248,0.099646,64.010872,1.396182,80.491203,101.816536,-79.864555,-112.359673,20.79895,-67.592651,0,0,1
0.713137,0.34851,0.105505,20.743696,-7.321375,46.903423,102.349434,-80.250954,-107.622429,25.800861,-62.951035,0,0,1
0.893313,0.422729,0.125769,19.339115,-1.046566,-12.898107,102.718781,-80.024002,-108.92514,25.107462,-63.723816,0,0,1
1.489748,0.380004,0.150183,-24.340273,27.151907,-80.043144,98.540024,-77.229271,-117.009499,14.240592,-74.662231,0,0,1
1.085207,0.279418,0.048376,49.858196,48.464886,-124.241623,101.792694,-72.394745,-129.557907,14.425102,-75.355545,0,0,1
1.291018,0.227904,0.217565,26.606291,30.64809,-166.867569,102.587822,-69.438995,-146.41153,9.874877,-76.284782,0,0,1
0.810305,0.035033,-0.085169,9.140641,30.129007,-114.424828,104.991562,-72.702705,-157.968445,177.537933,-83.516045,0,0,1
0.541018,0.079711,-0.088343,-17.286839,-2.069466,-48.913372,104.615211,-72.595734,-162.908691,171.726654,-77.596161,0,0,1
0.733401,-0.006471,-0.038782,-65.271568,-92.954964,31.956856,99.672394,-63.681763,-159.681046,-179.495193,-86.931252,0,0,1
1.548342,0.154418,0.224646,-99.592178,-187.489319,167.636246,87.934052,-82.566124,-142.749786,5.636709,-80.014893,0,0,1
1.031252,0.403686,0.393347,-85.50058,-91.077095,141.743118,78.114326,88.843567,-128.433731,20.089951,-61.341049,0,0,1
0.936038,0.117553,0.462683,-198.004395,-69.93206,36.781284,57.082035,82.485252,-124.718819,6.423462,-62.978264,0,0,1
0.686282,0.219604,0.357214,-162.676163,15.167174,69.727844,40.155628,84.765289,-117.676308,15.846166,-58.575089,0,0,1
0.698245,0.30017,0.044958,-140.187607,-22.695421,51.926323,25.941135,83.093475,-112.431747,23.219519,-66.506027,0,0,1
0.999514,0.54602,0.042517,-95.134163,1.793129,77.697311,16.57844,83.98349,-104.58432,28.625332,-61.279964,0,0,1
1.189944,0.610717,0.013952,19.201712,19.060305,39.254566,18.690792,86.533905,-100.619606,27.166733,-62.825596,0,0,1
0.684084,0.514525,-0.257776,27.278048,23.51832,-71.890472,23.914179,85.076828,-107.880547,144.861115,-49.927738,0,0,1
1.186038,0.407348,0.060095,76.49942,-11.458779,-152.027878,31.386461,84.424011,-123.235359,18.932611,-70.854538,0,0,1
1.237795,0.211059,0.031042,-97.958595,18.999235,-181.753067,21.256262,86.611649,-141.592422,9.673553,-80.221367,0,0,1
0.871096,0.019408,-0.031702,-15.439511,28.602289,-125.478264,22.877419,83.89724,-154.265732,178.724503,-87.556564,0,0,1
0.637209,-0.018922,0.009069,-3.088366,-6.848093,-45.325584,22.080168,83.379196,-158.843613,-1.700721,-88.113953,0,0,1
1.194094,-0.071656,0.033239,-22.584549,-58.405342,71.514107,19.334488,77.806351,-151.620682,-3.432811,-86.215355,0,0,1
1.191897,0.426391,-0.08639,25.598658,-42.741222,233.972122,24.688818,82.681801,-127.989494,160.363342,-69.947418,0,0,1
1.153567,0.466674,0.063269,-32.569283,-45.367176,123.17823,21.411251,78.781868,-115.548492,21.995825,-67.79229,0,0,1
0.790042,0.407836,-0.045862,-40.096001,-21.046566,112.582809,20.069035,81.638428,-104.177628,152.735535,-62.549267,0,0,1
0.686282,0.657592,-0.012903,56.16354,-6.817558,78.216393,27.951283,83.35611,-96.277771,136.228073,-46.217495,0,0,1
0.741702,0.503051,-0.035608,34.331482,6.81603,-17.890474,33.708065,83.498604,-98.084709,145.883987,-55.786816,0,0,1
1.171389,0.386596,0.148718,62.010868,11.472518,-96.348488,39.534313,85.153656,-107.81591,18.128641,-70.52594,0,0,1
1.3501,0.218383,0.179235,4.697894,32.999237,-136.394287,39.39082,88.75322,-121.591736,9.109617,-78.181,0,0,1
1.166262,0.090453,0.048376,77.8582,57.609924,-168.012619,46.398033,-85.419083,-138.561005,4.431081,-84.973572,0,0,1
0.937014,0.111205,0.207067,56.392548,30.632824,-114.50116,51.18401,-82.197037,-150.125626,6.610201,-75.918541,0,0,1
0.761477,-0.021852,0.126501,9.018504,27.457251,-77.936279,51.020554,-79.443985,-157.997192,-1.621514,-80.43071,0,0,1
0.557375,0.018432,0.04447,28.575756,17.350382,0.888153,52.866333,-77.839043,-157.907486,1.888007,-85.06385,0,0,1
0.84302,0.044799,-0.00094,-21.134167,-21.519848,67.636246,53.256306,-75.89138,-151.076218,176.958115,-86.957451,0,0,1
1.494143,0.238402,0.183874,-46.431877,-57.916794,179.361435,47.775333,-81.678299,-132.960709,8.998816,-78.607307,0,0,1
1.104739,0.479369,0.005651,21.720795,11.686258,171.972122,49.438889,-80.218857,-115.591522,23.456753,-66.541519,0,0,1
0.816653,0.412719,0.157263,-146.85936,-9.336642,58.689682,34.441841,-80.770508,-109.663864,26.3934,-61.594414,0,0,1
0.72217,0.265502,-0.004114,-64.950958,-2.130535,41.81945,30.520445,-80.340454,-105.440102,159.814621,-69.812103,0,0,1
0.691897,0.256469,-0.034876,-20.660885,25.915266,-6.531694,31.058727,-82.68853,-106.0998,159.685211,-69.489868,0,0,1
0.959719,0.14392,-0.080774,-17.729588,9.167174,-34.882839,32.112694,-83.546982,-109.622971,171.501068,-80.242592,0,0,1
0.99512,0.074584,0.005163,-24.615084,-11.0771,-94.730171,29.119762,-84.686523,-119.19072,4.286234,-85.703491,0,0,1
1.184084,0.089477,0.126989,64.942169,7.823664,-116.119484,35.051281,-83.868919,-130.918793,4.296854,-82.525772,0,0,1
1.083987,-0.013551,0.063024,108.758965,11.228243,-125.050781,45.100918,-82.812103,-143.54892,-0.715003,-86.596626,0,0,1
1.146243,0.179564,0.005407,85.980339,50.571758,-45.310318,52.887295,-77.772125,-148.125259,8.903203,-81.092728,0,0,1
0.704836,0.205199,0.025427,68.758965,-31.733587,3.330901,58.959751,-80.830681,-147.788834,16.221878,-73.650597,0,0,1
0.506106,0.08557,-0.066614,12.667359,4.693892,43.987392,62.444046,-81.236794,-143.3461,170.483978,-77.906212,0,0,1
0.494387,-0.072389,-0.090052,-95.057831,-29.596184,42.521744,55.550262,-78.219551,-139.051407,-171.802887,-76.845894,0,0,1
0.796145,0.145385,-0.091272,-174.935699,-72.558014,114.521736,40.518467,-71.030014,-127.484711,169.717102,-77.832451,0,0,1
0.976321,0.508666,-0.125696,-278.798309,-126.466415,69.4683,15.166091,-58.327339,-120.468414,152.672882,-61.778687,0,0,1
0.988528,0.890502,0.146032,-288.569275,-153.825195,-24.409557,-12.865695,-73.33857,-122.933777,41.706306,-47.608013,0,0,1
0.845461,0.589965,-0.194788,-296.691437,-117.474045,-77.921013,-46.259216,-61.318008,-130.803802,145.78476,-53.68959,0,0,1
0.457522,0.528441,-0.002894,-174.996765,-93.397713,8.903419,-67.237488,-51.664848,-129.904556,130.886429,-40.885426,0,0,1
0.371829,0.747924,0.184362,-75.439507,-61.306107,31.529373,-72.140274,-57.214962,-126.720093,60.973972,-25.766563,0,0,1
0.389163,0.771361,0.037146,-24.599815,-24.939695,34.109528,-71.869881,-59.074093,-123.275032,63.123791,-26.744907,0,0,1
0.449221,0.978148,0.043737,-32.096001,-29.214504,51.010292,-72.304749,-61.277176,-118.122993,65.230064,-24.645573,0,0,1
0.579104,1.099975,0.002966,-66.233398,-37.260303,20.750748,-76.169754,-64.294968,-116.027168,62.234219,-27.765387,0,0,1
0.708743,1.052611,-0.102503,-138.767761,-36.390076,15.147695,-93.097046,-60.08374,-114.497253,124.228394,-33.827961,0,0,1
0.960696,1.067504,0.026892,-24.783022,-7.275574,-77.447731,-92.728058,-60.44173,-122.319473,48.003342,-41.976463,0,0,1
0.682375,0.570189,0.051306,-55.225773,43.121376,-130.165283,-95.543694,-55.964828,-135.466171,39.802517,-50.004333,0,0,1
0.392825,0.339965,-0.081019,51.415451,43.396183,-121.188187,-92.949371,-60.107716,-147.706177,139.7155,-48.341381,0,0,1
0.375247,0.176146,-0.173304,44.529953,-1.916795,-50.684364,-90.744446,-59.848526,-152.825302,156.918182,-56.634361,0,0,1
0.65137,0.114867,-0.283411,26.285681,-36.31374,87.956856,-90.111511,-56.35424,-143.941666,170.81456,-64.850929,0,0,1
1.351077,0.51477,0.106726,-23.622717,-57.29084,201.407242,-90.231499,-62.272575,-123.599533,20.797968,-68.738518,0,0,1
1.424807,0.738647,0.196081,-42.080734,-32.31374,233.315628,-92.048347,-65.46138,-100.034653,27.18404,-61.792053,0,0,1
1.02344,0.331664,0.070593,-34.447147,18.54122,163.239288,-93.258644,-63.750313,-83.547485,17.916008,-71.668564,0,0,1
0.936038,0.347533,0.099157,-15.943328,-5.412978,141.025558,-92.566246,-64.388847,-69.303902,20.264921,-68.888535,0,0,1
1.007082,0.488891,0.137731,-70.050194,-23.35191,107.453033,-97.134773,-66.677162,-58.451145,25.686399,-63.235939,0,0,1
1.191409,0.544799,0.140905,-81.531113,19.411449,2.09426,-102.773575,-64.716629,-58.239624,24.42318,-64.71772,0,0,1
0.718264,0.246947,-0.158167,-26.95096,74.449615,-81.85994,-107.356934,-72.147133,-66.507477,161.439667,-67.790504,0,0,1
1.10425,0.244506,-0.028528,130.270401,13.426717,-153.127121,-96.165283,-73.581825,-81.97332,167.518906,-77.432854,0,0,1
1.130862,-0.013307,0.160192,73.949806,4.006869,-131.096588,-86.935776,-73.351791,-95.214073,-0.667495,-81.909996,0,0,1
0.840823,-0.087037,0.225622,107.690262,23.625191,-114.745438,-74.652069,-71.025421,-106.80336,-5.709311,-73.9543,0,0,1
0.774172,0.054076,0.29569,90.957436,13.106106,-51.203449,-64.081398,-69.683266,-111.974907,3.733412,-68.779877,0,0,1
1.410403,0.011352,0.346228,27.965071,40.495422,-29.600397,-60.022835,-65.805374,-114.964546,0.447837,-76.200562,0,0,1
0.806399,-0.065309,0.023229,66.758965,84.816032,63.208767,-52.30714,-57.795918,-108.58046,-4.628251,-85.087021,0,0,1
0.97095,0.054809,-0.153772,121.644463,54.205345,135.162964,-42.88446,-63.614365,-94.929001,176.808853,-80.455986,0,0,1
0.854739,0.095092,-0.18014,118.789497,16.846565,109.17823,-33.993225,-65.541458,-83.902,173.787186,-76.595551,0,0,1
0.849368,0.167357,0.0557,46.468884,-22.329008,73.956856,-28.491402,-68.006119,-76.432358,11.123343,-78.268463,0,0,1
1.052981,0.017699,0.269567,-2.538748,-38.420609,30.246931,-28.154203,-71.961082,-73.377419,0.932896,-75.610809,0,0,1
0.996584,0.011596,0.153356,-24.447144,-8.527482,-35.188183,-29.997721,-72.990456,-76.931427,0.658877,-81.227249,0,0,1
0.665286,-0.119264,-0.029017,63.094837,21.335114,-10.959176,-26.549555,-75.23333,-78.038307,-169.846161,-79.546684,0,0,1
0.841311,-0.414674,-0.015345,-7.1189,26.907633,-33.233982,-29.7985,-77.666908,-81.394943,-153.765549,-63.746223,0,0,1
0.696047,-0.213014,0.082556,16.820032,38.800766,39.712582,-27.875767,-73.709663,-77.383972,-16.904194,-71.829491,0,0,1
0.741946,0.073363,0.00736,-47.851727,20.006868,18.308001,-31.941677,-71.941689,-75.534866,5.646749,-84.324814,0,0,1
0.874026,0.291625,-0.073206,4.377283,17.854198,21.804184,-34.837402,-73.690392,-73.332642,161.608398,-71.016312,0,0,1
1.382571,0.452514,-0.067347,35.003235,-17.153437,-19.85994,-34.638062,-71.952545,-75.338493,161.896851,-71.69043,0,0,1
1.293704,0.330687,0.04447,-53.50058,-25.138168,-153.096588,-38.954182,-74.512428,-90.801247,14.330413,-75.537796,0,0,1
1.348635,0.104369,0.043005,-22.660885,2.251144,-193.081314,-40.329613,-74.50367,-110.30246,4.422987,-85.215446,0,0,1
1.018313,0.031127,0.080847,-22.889893,24.861832,-193.661469,-41.753754,-72.255516,-129.862274,1.745337,-85.137337,0,0,1
0.618167,-0.040406,0.009069,24.346748,7.533587,-94.272156,-38.583626,-71.788078,-139.383759,-3.739398,-86.167427,0,0,1
0.601809,-0.048951,-0.040003,-25.088366,-36.267937,-0.837038,-43.802402,-68.442581,-139.468292,-175.360001,-84.003319,0,0,1
1.209963,-0.045533,-0.011927,-50.248672,-101.519844,133.57518,-51.456863,-58.780739,-125.977196,-177.844971,-87.772232,0,0,1
1.306399,0.500365,0.015905,-58.615086,-62.481682,248.628601,-55.810329,-65.170227,-100.865707,20.955975,-69.032944,0,0,1
0.964846,0.473998,0.306921,-168.584549,-68.206871,122.598076,-70.878891,-71.811165,-88.483299,25.086763,-59.661095,0,0,1
0.696292,0.217406,0.195837,-187.241043,-51.809921,57.544643,-87.659851,-76.847214,-82.671288,16.729322,-67.206238,0,0,1
0.68384,0.346801,0.168005,-72.828819,-0.832825,52.292736,-92.590858,-76.60466,-77.389725,26.219873,-60.598209,0,0,1
0.997317,0.732787,0.105993,-9.637984,8.846564,57.040825,-90.969933,-75.265129,-71.628601,36.1535,-53.409622,0,0,1
1.272463,0.618285,-0.035853,-39.775391,77.090843,-86.714905,-97.205627,-82.671227,-80.38681,154.093994,-64.047234,0,0,1
1.175051,0.243773,-0.196985,115.827667,74.754959,-126.45536,-87.628143,-89.918365,-93.158806,168.436722,-75.065506,0,0,1
0.887698,0.206908,0.144323,91.339119,44.739697,-146.77597,-76.575714,-85.174377,-107.983177,12.956209,-74.135666,0,0,1
0.778811,0.107543,0.1182,18.56049,27.777861,-132.043152,-73.051613,-82.289528,-121.319534,7.774113,-78.404564,0,0,1
0.491702,0.315307,0.459265,-92.096001,12.022137,-88.684372,-80.204063,-80.28244,-130.276657,25.109217,-41.432755,0,0,1
0.434573,0.429564,-0.074671,93.384918,34.235878,4.09426,-73.841766,-82.96357,-129.863144,135.748779,-44.905666,0,0,1
0.952639,0.4635,-0.132044,5.125375,-30.466413,44.720215,-75.972229,-79.552032,-125.346405,154.268936,-63.165077,0,0,1
0.948,0.472289,-0.43014,134.026138,-36.237404,49.544643,-65.274963,-75.494736,-120.3424,155.597229,-56.025982,0,0,1
0.661624,0.340941,-0.024134,-154.813568,-112.695419,40.491207,-83.437866,-64.083824,-116.252785,152.752991,-62.679142,0,0,1
0.542727,0.222533,0.252233,-104.096001,-77.000763,106.491203,-91.664597,-71.587891,-105.497169,20.396782,-58.210533,0,0,1
0.873538,0.269408,0.186804,-44.79829,-41.870991,125.132423,-93.929787,-75.68911,-92.858795,16.782869,-69.429047,0,0,1
1.237551,0.632689,0.26444,-15.118901,-23.67252,109.911049,-93.016403,-77.738617,-81.757782,26.563063,-61.009087,0,0,1
1.079592,0.982543,-0.013147,19.873466,35.182446,68.033188,-93.635071,-80.620041,-74.886429,137.696609,-47.69194,0,0,1
0.894778,0.677367,-0.209681,173.339111,8.510686,-31.661467,-78.933075,-80.882118,-78.084236,143.607727,-51.604469,0,0,1
1.017825,0.567992,0.332067,68.331482,-16.374809,-150.562225,-70.032028,-82.027664,-93.291023,27.947042,-57.120689,0,0,1
1.044192,0.17224,0.185827,20.850567,14.785495,-182.104218,-66.383118,-80.450859,-111.683548,9.224257,-76.360741,0,0,1
0.95386,0.04016,0.23197,2.377283,14.602289,-149.157654,-64.7733,-78.919228,-126.748474,2.342687,-76.136002,0,0,1
0.779055,-0.191529,0.000524,-3.347908,29.670992,-48.714897,-64.085457,-75.927765,-131.668686,-13.812135,-76.187813,0,0,1
0.962893,0.098998,-0.136683,17.20171,3.365648,83.17823,-64.817352,-76.343513,-123.267685,174.187729,-80.058632,0,0,1
1.048586,0.1864,-0.11886,-22.508213,-22.512215,132.979752,-69.549225,-74.150284,-109.836731,169.983032,-78.094749,0,0,1
0.968508,0.430297,0.0828,-25.088366,-6.176337,162.50647,-70.16394,-74.591736,-93.423576,23.877703,-65.656158,0,0,1
0.914553,0.489379,-0.011194,-28.172335,-29.306108,159.49884,-75.712128,-71.436035,-77.314194,151.850479,-61.842461,0,0,1
0.909426,0.714232,0.116735,-13.042564,-1.840459,73.559906,-74.730476,-71.219238,-69.884644,37.91769,-51.487694,0,0,1
0.982668,0.653686,0.025915,35.445984,-1.687787,3.025557,-69.054962,-71.088844,-69.579063,33.623253,-56.346809,0,0,1
1.328127,0.573852,0.151647,97.552856,8.144274,-67.325592,-57.553413,-70.179337,-76.378952,23.233191,-65.919746,0,0,1
1.180911,0.280883,0.088903,132.865829,15.151907,-140.592758,-42.984428,-68.795845,-90.578819,13.342945,-75.991661,0,0,1
1.05469,0.22058,0.291296,42.591022,-1.138169,-154.730164,-37.681126,-68.950417,-106.206566,11.397747,-70.891777,0,0,1
0.977786,0.010375,0.232946,-19.851725,0.480152,-154.287415,-38.880596,-69.055626,-121.789597,0.591376,-76.586922,0,0,1
0.876711,-0.011109,0.151647,35.903999,16.419083,-94.5317,-34.563515,-67.652565,-131.337296,-0.715371,-80.16069,0,0,1
0.955569,-0.051881,0.056677,-10.401343,6.037404,-12.302687,-34.963818,-67.409988,-132.579865,-3.102277,-85.402771,0,0,1
0.757815,0.245727,-0.172815,-17.668518,12.419083,127.773643,-39.964264,-68.658546,-119.674728,162.456146,-68.375778,0,0,1
0.990481,0.250365,-0.106897,-18.080732,-6.558016,138.796555,-44.836731,-68.128899,-105.656273,165.893036,-74.631874,0,0,1
0.885256,0.360717,-0.131312,3.125374,13.090838,177.132431,-47.669678,-69.393188,-87.7659,158.047531,-66.556976,0,0,1
0.866702,0.595092,0.043493,-131.470047,-7.0771,103.559906,-59.040382,-69.814911,-77.306351,34.440525,-55.454605,0,0,1
1.015139,0.422484,-0.040247,-5.378443,-15.168703,63.81945,-62.443573,-68.263458,-70.860588,157.419678,-67.31176,0,0,1
1.214114,0.642211,0.273962,52.194077,-3.229772,-6.98971,-55.482677,-68.41983,-71.566551,27.2929,-60.097927,0,0,1
0.934084,0.42102,0.034216,8.468886,54.00687,-104.714905,-53.049809,-63.019173,-82.142754,24.248112,-65.666779,0,0,1
1.232424,0.356566,0.053991,92.148277,12.037403,-164.150024,-42.545547,-62.041119,-98.721909,16.121614,-73.689522,0,0,1
1.045657,0.125609,0.13529,17.69026,29.640457,-191.004974,-39.807781,-59.466236,-118.013412,6.793735,-79.98761,0,0,1
0.734866,0.005736,0.083044,40.438351,25.655724,-86.150017,-35.000149,-57.408253,-126.714561,0.444411,-83.537376,0,0,1
0.748293,0.031615,0.070104,19.949802,-30.954962,-26.440092,-32.27734,-61.006653,-129.38501,2.40876,-84.132202,0,0,1
1.15137,0.063109,0.072302,-52.340275,-54.267937,102.674408,-36.749809,-66.862671,-119.014893,3.131227,-85.235222,0,0,1
1.07178,0.393432,0.057653,-29.50058,-26.756489,158.246933,-38.532169,-69.566673,-103.031952,20.130543,-69.644997,0,0,1
0.911624,0.42224,0.151159,-113.805923,-57.535114,118.842346,-48.534897,-75.146263,-91.028877,24.55732,-63.804691,0,0,1
0.720217,0.376342,0.124792,-127.622719,-41.138168,74.170593,-59.651451,-78.938522,-83.537643,27.242472,-61.166443,0,0,1
0.786868,0.350707,0.15238,-102.080727,-10.145802,0.338534,-68.089714,-79.64563,-83.503448,23.632782,-64.082428,0,0,1
1.041018,0.347045,0.121618,-101.057831,3.747327,4.048458,-76.364204,-79.092697,-83.094551,18.320675,-70.544319,0,0,1
0.717288,0.358275,-0.04928,-98.966225,5.823663,-20.638565,-88.76236,-79.352135,-85.179047,153.512375,-63.243248,0,0,1
1.015139,0.407592,0.053503,-87.668518,-19.321375,-64.043144,-95.22757,-81.036613,-91.647408,21.84865,-67.95414,0,0,1
0.905764,0.272338,-0.158655,-30.1418,2.11374,-105.676735,-100.23642,-81.041367,-102.320755,163.50267,-70.813477,0,0,1
1.070071,0.457641,-0.058558,-30.095999,-43.031296,-87.615669,-105.273087,-76.494827,-111.169937,156.875854,-66.676224,0,0,1
0.813967,0.322387,-0.185999,-85.790657,-58.130535,-73.478264,-115.681412,-70.519722,-118.59124,158.887634,-65.427284,0,0,1
0.45093,0.200072,-0.390589,-68.111267,-82.863358,-25.401924,-124.080246,-61.823074,-121.156837,161.460083,-45.777889,0,0,1
0.437502,0.410277,-0.140589,-139.531113,-150.649612,36.017925,-139.844604,-46.580322,-117.519028,138.241302,-45.250301,0,0,1
0.474124,0.460814,0.003942,-187.912796,-141.626724,48.231667,-161.963638,-60.583221,-112.647629,44.183445,-45.814518,0,0,1
0.648196,0.541869,0.109899,-131.042572,-104.603813,85.895782,-178.105057,-70.715965,-103.972153,39.495445,-49.536308,0,0,1
1.149172,0.653441,0.326452,-199.989136,-110.390076,102.857613,159.035675,-81.379234,-93.583534,28.677647,-57.558693,0,0,1
1.210452,0.742064,0.217077,-34.065468,-44.924427,152.827087,153.105316,-85.346909,-78.147995,31.107662,-57.432007,0,0,1
0.760989,0.820678,0.513708,20.636826,58.235878,-37.127113,152.921677,-78.639122,-81.897835,41.791561,-38.166794,0,0,1
0.633303,0.543578,0.110144,26.255146,43.74733,-95.233986,153.266357,-73.712013,-91.516464,40.2188,-48.789253,0,0,1
0.779788,0.487182,0.229284,46.453617,64.525955,-112.760704,155.41777,-66.958496,-102.905296,30.93799,-55.375111,0,0,1
0.925295,0.307982,0.018103,87.384918,29.457251,-106.974442,161.32692,-64.134857,-113.709717,18.406616,-71.560471,0,0,1
0.969485,0.087768,-0.041712,-3.943328,-18.237406,-43.921005,161.206711,-62.732544,-118.145737,174.831863,-84.276138,0,0,1
0.800784,0.20349,-0.020228,-34.370811,-48.89389,98.537003,157.895477,-58.151871,-108.193497,165.74649,-75.674751,0,0,1
0.912844,0.331176,0.195349,-61.515846,-68.527481,87.330902,149.039383,-65.114861,-99.373077,19.532806,-67.158768,0,0,1
0.704104,0.253783,0.1182,-103.241035,-53.977863,91.056091,136.231186,-70.521629,-90.176414,19.568283,-68.316704,0,0,1
0.795168,0.380248,0.185339,1.171176,-38.496944,93.834717,134.121918,-74.161385,-80.699104,24.972101,-61.988018,0,0,1
0.806643,0.518432,0.107702,-62.141804,-10.344275,62.094261,125.938667,-74.836395,-74.427582,32.499146,-56.718098,0,0,1
1.197268,0.685912,0.078894,-9.1189,5.457251,30.949221,123.112404,-74.000084,-71.301712,29.754791,-60.02903,0,0,1
0.956545,0.661986,0.008581,38.49942,28.510687,-39.249249,125.154518,-70.804337,-75.265884,34.684464,-55.312206,0,0,1
1.098635,0.431762,0.042517,96.194077,21.136641,-117.203453,132.601517,-68.665161,-87.103432,21.440149,-68.450981,0,0,1
0.947512,0.211791,0.154333,30.575756,20.693892,-157.539337,133.224701,-66.734383,-103.014908,12.441072,-74.539932,0,0,1
0.831301,0.035766,0.129187,4.514688,17.884733,-129.340851,131.055756,-65.246262,-116.078331,2.434371,-80.839996,0,0,1
0.70801,-0.014771,0.122351,-3.042565,0.388549,-63.218716,128.10994,-65.505394,-122.463425,-1.177759,-80.125801,0,0,1
1.084963,0.029418,0.054724,-26.492945,-18.191605,36.017925,122.95649,-67.730339,-118.825615,1.551181,-86.72258,0,0,1
0.952395,0.34265,-0.024134,-67.286835,-38.390076,151.193497,117.041672,-63.979225,-103.555069,160.218262,-70.167206,0,0,1
1.043704,0.445189,0.006872,-38.309742,-35.168701,150.414871,111.370949,-67.518578,-88.363167,23.100115,-66.89698,0,0,1
0.730227,0.423217,0.064245,-65.760117,-33.168701,103.926315,103.234589,-70.643654,-77.866608,29.999498,-59.620804,0,0,1
0.713137,0.491576,0.121618,-52.691422,-41.641983,66.964485,96.638428,-74.444939,-71.103195,34.196289,-54.621521,0,0,1
0.965334,0.467162,-0.020228,-85.928055,1.014503,22.231665,89.284111,-74.339554,-68.857796,154.180832,-64.154846,0,0,1
1.21802,0.506469,-0.049036,-22.172335,25.579388,-25.447725,88.452583,-76.731148,-71.428017,157.438263,-67.326897,0,0,1
0.938479,0.536498,0.00736,14.49942,38.098473,-70.913376,88.713768,-72.630386,-78.590271,29.75445,-60.242474,0,0,1
1.056887,0.400512,-0.008265,71.690262,38.098473,-156.943909,97.220314,-76.333595,-94.441605,159.24617,-69.241547,0,0,1
0.932131,0.110961,-0.017054,5.751328,37.304581,-151.890472,99.309425,-80.16198,-109.782539,173.212585,-83.1325,0,0,1
0.650637,0.032592,0.003454,20.713161,18.113739,-89.081314,99.430771,-78.508163,-118.779755,2.86763,-87.116295,0,0,1
0.757815,-0.019654,-0.009241,7.064305,-10.191604,-6.684366,101.771118,-77.696404,-119.454872,-178.51445,-88.358391,0,0,1
1.213625,0.02893,-0.004603,-41.286842,-50.145802,124.643875,99.221817,-72.951393,-106.865837,178.634491,-88.61731,0,0,1
1.164797,0.462279,-0.022181,6.606291,-24.558016,197.376694,101.058403,-70.428223,-86.930794,158.356659,-68.330498,0,0,1
0.816409,0.571654,0.136999,-99.088364,-19.138168,94.811813,89.922012,-71.998856,-77.354797,34.627056,-54.244865,0,0,1
0.657961,0.297729,0.024694,-158.416611,-39.138168,44.53701,72.93013,-75.744362,-72.85656,24.331678,-65.579323,0,0,1
0.71509,0.579711,0.228308,-59.454781,2.32748,20.995022,66.340256,-74.977798,-70.736061,37.678062,-48.934814,0,0,1
0.869875,0.599975,0.03153,-8.233404,14.419083,-41.707264,64.89006,-73.158401,-74.948494,34.577408,-55.368076,0,0,1
1.469485,0.744018,0.453649,26.17881,34.06794,-77.066048,66.699776,-69.509827,-82.732162,25.816919,-59.331825,0,0,1
1.283938,0.079955,0.509558,83.873466,125.503052,-147.264526,73.733833,-57.059605,-97.605881,3.312674,-68.113342,0,0,1
0.949709,0.085082,0.59696,63.384914,177.701523,-118.77597,78.619743,-39.48127,-109.602257,4.337466,-57.587585,0,0,1
0.667483,0.002318,0.420935,-8.935695,154.602295,-58.577496,76.16626,-24.544367,-115.518585,0.168328,-57.762863,0,0,1
0.416995,0.313109,0.534948,-18.996761,111.625191,-12.409557,73.258224,-13.683424,-116.77195,24.779343,-33.930336,0,0,1
0.441165,0.422484,0.525671,-96.660881,79.182442,34.460674,62.857922,-6.236093,-113.29142,31.617739,-33.19083,0,0,1
0.396731,0.433715,0.960485,-98.584549,34.861832,40.308002,52.295937,-3.073325,-109.220314,22.653524,-20.628933,0,0,1
0.389651,0.394408,0.911413,-65.271568,71.472519,47.88052,45.223392,3.634029,-104.384384,21.697851,-21.423122,0,0,1
0.02637,0.222289,0.751257,-106.355537,75.151909,-30.409557,34.121323,10.96133,-107.45575,16.473343,-1.927745,0,0,1
-0.059812,0.105102,0.715856,-23.347908,26.571754,-20.913374,31.294397,13.46669,-109.568001,8.323858,4.725717,0,0,1
0.150637,0.06018,0.802038,40.102474,-37.99313,32.582809,34.722202,9.224634,-106.277138,4.217588,-10.608117,0,0,1
-0.144529,-0.074098,1.016638,-13.485312,19.106106,97.620972,32.610439,11.092666,-96.417419,-4.12728,8.070029,0,0,1
-0.119871,-0.167115,1.432409,-14.233404,-44.405342,55.407238,30.41678,6.570602,-90.821289,-6.631486,4.75155,0,0,1
0.042727,-0.133668,1.073034,59.400181,-42.725952,125.743111,35.545971,2.16492,-78.121231,-7.095198,-2.26278,0,0,1
0.139163,-0.003785,0.881384,23.965071,-33.27557,43.025558,37.202255,-1.351441,-73.77565,-0.243048,-8.972338,0,0,1
0.046633,-0.131959,0.585974,7.216977,-17.153437,24.109526,36.919502,-3.111048,-71.340591,-12.652369,-4.439441,0,0,1
0.221194,0.00476,0.814245,-28.523479,-18.16107,-15.921007,33.364326,-5.150363,-72.948616,0.323212,-15.19768,0,0,1
0.22217,-0.085084,1.246618,-21.164701,8.098473,-42.623295,30.525276,-4.447411,-77.253571,-3.844102,-10.082101,0,0,1
0.441653,-0.110475,1.234411,-8.508214,-29.0313,-93.997345,28.976295,-7.624261,-86.747299,-4.816639,-19.614033,0,0,1
0.308596,0.061889,0.512243,15.461252,35.823666,-19.462992,30.045294,-4.543615,-88.713058,5.908494,-30.883282,0,0,1
-0.248289,-0.059449,0.79154,92.239883,86.006874,42.53701,38.492313,4.407609,-84.416817,-4.098973,17.36952,0,0,1
-0.132566,0.159789,0.502478,-42.767757,42.72443,31.727848,33.83115,8.830574,-81.212303,17.091696,14.112699,0,0,1
-0.605466,-0.164918,0.693884,16.300947,141.808395,0.521741,34.564938,23.496735,-81.159607,-10.153058,40.328857,0,0,1
-0.867185,-0.097291,0.668981,63.415451,194.052673,-10.272153,40.048977,43.275364,-82.197098,-5.076313,52.0616,0,0,1
-1.332029,-0.393678,1.361853,-54.599819,245.167175,-21.951542,33.61018,67.540848,-84.4142,-11.676225,43.217232,0,0,1
-1.068845,-0.247926,1.402868,-85.973862,138.602295,-84.165283,24.268246,80.646484,-92.914894,-8.001931,36.879929,0,0,1
-0.765378,0.044066,0.782995,-85.74485,33.854198,-111.646202,15.341949,83.2705,-104.191162,2.304662,44.302856,0,0,1
-0.819089,-0.149293,0.531286,-50.202869,35.243511,-39.340855,9.892148,86.214088,-108.164589,-8.694109,56.029785,0,0,1
-1.116453,0.172729,0.605749,-85.347908,-25.214504,-9.768336,1.401447,83.205452,-109.151192,7.743905,60.56863,0,0,1
-1.51489,0.135863,0.342565,-102.905159,-56.267937,11.956855,-8.712151,77.498489,-107.94355,4.99931,76.327362,0,0,1
-1.613523,0.040404,0.405798,-32.401344,-7.474047,74.094261,-11.717171,76.72506,-100.46003,1.391143,75.816017,0,0,1
-1.343259,-0.193482,0.304235,245.995605,50.587025,63.361439,12.705885,81.697166,-94.060524,-7.99666,74.975235,0,0,1
-1.237302,0.01599,0.747106,115.629196,28.388548,109.437767,23.909422,84.050522,-83.007309,0.633843,58.869823,0,0,1
-0.998777,-0.44983,0.505651,13.369649,-36.57328,119.911049,24.316738,79.86705,-70.896294,-21.891253,55.878109,0,0,1
-0.849851,-0.425904,0.279577,69.445992,-15.336641,76.369064,30.195028,77.932846,-63.183018,-25.456945,59.058182,0,0,1
-0.949216,-0.405885,0.262731,13.583389,-12.75649,8.720214,30.487675,76.371696,-62.302277,-22.396812,63.007278,0,0,1
-1.275388,-0.532105,0.313269,-104.004395,12.81603,-108.45536,19.142445,77.396118,-73.256271,-22.056181,64.166267,0,0,1
-1.468748,-0.077516,0.055944,-69.149429,38.144276,-194.760712,11.854807,81.349236,-92.927101,-3.018893,86.276085,0,0,1
-1.268796,-0.030885,0.590124,-18.508213,54.785496,-136.180557,9.760481,86.44545,-106.681335,-1.264387,65.026634,0,0,1
-1.093748,0.109984,0.456823,-78.920425,-17.535116,-72.150017,1.859752,84.315941,-113.968491,5.301249,66.751518,0,0,1
-1.081052,0.065307,0.403601,-56.065468,-36.664886,3.285099,-3.662019,80.386208,-113.636696,3.239182,69.283562,0,0,1
-1.453855,-0.120973,0.300573,21.064306,-20.939695,36.674416,-1.597003,78.254608,-109.932579,-4.658454,77.436447,0,0,1
-1.302,-0.078248,0.514196,63.171173,-14.756489,58.094261,4.623633,76.593407,-104.065056,-3.199342,68.224541,0,0,1
-1.270261,-0.326051,0.407995,131.8582,14.190075,81.682045,17.307829,77.819069,-95.81517,-13.732987,67.649788,0,0,1
-1.114744,-0.222291,0.631384,55.339115,-9.000765,117.620972,22.242268,76.552116,-83.935455,-9.84347,59.01638,0,0,1
-0.941404,-0.451783,0.387243,46.209343,-30.817556,110.796547,25.892569,73.12484,-72.745003,-23.932693,57.704212,0,0,1
-0.78613,-0.436891,0.297399,43.537586,1.701526,39.81945,29.134764,72.952507,-68.723236,-27.465225,56.087475,0,0,1
-0.950193,-0.497682,0.289587,-34.950962,3.930533,-10.272153,24.56039,73.058197,-69.760727,-26.611683,58.784809,0,0,1
-1.261472,-0.146607,0.283483,-104.569283,30.724426,-78.730171,13.589532,76.154182,-77.712471,-6.469215,75.802216,0,0,1
-1.358152,-0.034303,0.533972,-158.721954,53.10611,-18.455359,-2.419489,81.257484,-79.576462,-1.346517,68.497002,0,0,1
-1.200437,0.093871,0.678015,-101.729584,7.487785,25.071358,-12.362391,81.579643,-77.044258,3.895129,60.308468,0,0,1
-0.961423,0.068236,0.34403,-50.905163,13.319846,6.933954,-17.077274,82.665604,-76.343925,3.823096,69.957779,0,0,1
-0.892576,0.022094,0.424597,-204.096008,-2.420612,67.804184,-36.911545,82.063286,-69.495705,1.280496,64.529594,0,0,1
-0.844724,-0.046021,0.50028,-220.721954,-0.313741,73.49884,-58.074051,81.576134,-62.072323,-2.68388,59.258293,0,0,1
-0.981199,-0.046266,0.54447,-161.912796,-4.37481,8.995023,-72.985924,80.729324,-61.163826,-2.360957,60.886467,0,0,1
-1.237546,0.092162,0.694372,-209.378448,-13.397711,12.338534,-92.17617,78.998421,-59.917633,3.71596,60.48978,0,0,1
-0.982664,0.107787,0.386755,-132.78302,-41.886257,-1.890473,-103.358955,74.628075,-60.10857,5.827877,67.776192,0,0,1
-1.199461,0.133422,0.708776,-93.882256,-11.519849,28.598076,-110.474838,73.174911,-57.220165,5.470244,58.98188,0,0,1
-0.974607,-0.020631,0.439733,-149.439514,-73.748856,65.49884,-123.078979,65.725594,-50.604782,-1.105402,65.691933,0,0,1
-0.952146,-0.030641,0.245886,-30.783022,-39.489311,2.460672,-123.699997,62.010685,-50.356255,-1.784667,75.412842,0,0,1
-1.060544,-0.031861,0.32987,-58.096001,-22.848093,2.598076,-127.009193,59.961899,-50.093849,-1.643182,72.646713,0,0,1
-1.269285,-0.129762,0.338415,-11.653252,2.81603,-15.829405,-125.735283,60.522663,-51.692619,-5.641459,74.063484,0,0,1
-1.379392,0.046752,0.453405,7.445985,24.632824,-22.623299,-122.446693,63.18465,-53.977573,1.844193,71.714272,0,0,1
-1.199949,0.427123,0.248815,36.911633,39.854198,58.613346,-115.959946,67.217941,-48.057625,19.215338,67.611115,0,0,1
-1.380125,-0.192018,0.589636,-57.912796,-15.000765,219.773651,-119.518776,65.704903,-25.860485,-7.29099,65.804794,0,0,1
-0.941892,-0.396119,0.225134,12.743695,-47.99313,125.056091,-116.311951,60.924149,-13.229819,-22.246262,64.185295,0,0,1
-0.65698,-0.235719,0.201452,49.568123,-6.084734,40.842354,-109.45813,60.398079,-9.104741,-18.933361,64.734108,0,0,1
-0.807615,-0.42151,0.081823,-66.431877,-3.703054,-31.050779,-114.393219,60.063629,-12.24087,-27.441097,62.002121,0,0,1
-1.640134,-0.372438,0.51737,-98.325005,48.983971,-93.905739,-122.081947,65.085991,-21.725349,-12.219209,68.760101,0,0,1
-1.594968,0.167602,0.559606,-97.576912,39.136642,-122.027878,-129.185211,69.05571,-34.050167,5.662679,69.884476,0,0,1
-1.223875,0.640502,0.877478,25.079575,45.609924,-44.409557,-123.658318,73.157196,-38.535534,23.040968,48.406082,0,0,1
-0.857419,0.212279,0.308386,31.507055,-7.031299,53.758385,-117.804306,72.32634,-33.105938,13.11422,66.411911,0,0,1
-0.961179,0.076781,0.455358,92.163544,4.9229,59.025558,-106.243294,72.653862,-27.144356,4.129069,64.338631,0,0,1
-1.225584,-0.070436,0.590124,50.423084,-8.37481,120.124794,-99.186829,71.654449,-15.011751,-2.964187,64.130226,0,0,1
-1.234617,-0.305787,0.583044,44.423084,-58.420609,104.445404,-93.058571,65.677505,-4.462765,-12.623662,61.930984,0,0,1
-1.138425,-0.54651,0.045202,-128.462418,9.533587,-4.272153,-104.425125,66.593185,-4.894253,-25.626085,64.280029,0,0,1
-0.951169,0.100707,0.560827,-39.699055,16.953434,-84.195816,-106.161812,68.120895,-13.39803,5.211181,59.076313,0,0,1
-0.893796,0.086303,0.315954,-103.42424,1.182442,-70.882843,-114.171471,68.273003,-20.557198,5.201692,69.874802,0,0,1
-1.189695,0.211547,0.505163,-71.012024,21.732059,-93.600395,-118.730919,70.364212,-30.010838,9.295311,65.281281,0,0,1
-1.544675,0.297484,0.421179,17.781864,30.70916,-73.157654,-114.385735,73.427322,-37.399761,10.525746,71.539955,0,0,1
-1.304685,0.364379,0.564001,24.300947,13.319846,24.720213,-109.405144,74.532516,-34.903019,14.378531,62.766979,0,0,1
-1.317625,-0.045533,0.398474,297.766602,120.419083,-47.890472,-77.78199,86.422363,-39.739956,-1.894513,73.07048,0,0,1
-1.03491,-0.054078,0.646032,111.400185,68.953438,69.86525,-65.250717,-87.32235,-32.683567,-2.538054,57.936008,0,0,1
-1.011716,-0.056275,0.725622,62.117741,17.51832,129.49884,-57.849052,-86.356552,-19.604183,-2.588011,54.269794,0,0,1
-1.064451,-0.229615,0.461218,49.445984,29.045036,93.22403,-52.021824,-84.071106,-10.188556,-11.19591,64.172165,0,0,1
-0.081541,0.250609,0.962438,-0.294473,-0.298474,-2.211084,11.723034,-0.802572,7.109038,14.545257,4.687133,0,0,1
-0.075681,0.252562,0.962194,-2.79829,1.793129,-0.699633,11.504884,-0.522026,7.038375,14.66422,4.350543,0,0,1
-0.087644,0.253539,0.9932,0.60629,2.251144,-2.058412,11.62014,-0.191027,6.830476,14.267174,4.887028,0,0,1
-0.087644,0.242797,0.973913,1.110107,-2.298474,0.20113,11.776503,-0.314902,6.85079,13.94437,4.990357,0,0,1
-0.081296,0.237182,0.973669,-3.256305,-0.451146,-0.073679,11.491556,-0.260502,6.843349,13.644681,4.637833,0,0,1
-0.087644,0.236693,0.985388,-1.439511,-4.130535,-0.027878,11.388353,-0.565276,6.840533,13.455569,4.942855,0,0,1
-0.081785,0.228881,0.99613,-1.973862,0.098473,0.918687,11.22318,-0.452726,6.93332,12.898312,4.574909,0,0,1
-0.078611,0.226439,0.973913,-0.660885,-0.97023,-0.623298,11.194262,-0.449798,6.870367,13.048016,4.495315,0,0,1
-0.081541,0.237914,0.975866,0.850565,0.617556,-0.928641,11.327675,-0.286855,6.776574,13.655507,4.641057,0,0,1
-0.07446,0.227416,0.980993,1.079573,-0.038932,-0.760702,11.468291,-0.200394,6.699743,13.015725,4.228883,0,0,1
-0.075437,0.236693,0.968298,0.49942,0.785495,-0.302687,11.562284,-0.032082,6.669172,13.696242,4.327817,0,0,1
-0.084226,0.237426,0.959753,-0.645618,3.915267,1.468305,11.544011,0.453478,6.817471,13.843842,4.869274,0,0,1
-0.085447,0.22766,0.98905,-0.569282,0.617556,-0.714901,11.515106,0.601783,6.745265,12.916106,4.812453,0,0,1
-0.079099,0.230834,0.961218,-0.294473,-0.054199,-0.012611,11.524856,0.675879,6.743992,13.459888,4.574809,0,0,1
-0.088376,0.230102,0.988317,-1.485312,-0.26794,-0.50116,11.408461,0.735389,6.693375,13.055909,4.977436,0,0,1
-0.092771,0.23474,0.990759,-0.157068,1.670992,-2.150015,11.430211,0.990198,6.476223,13.273293,5.206065,0,0,1
-0.079587,0.220824,0.988806,-1.042564,0.480152,-1.814137,11.349407,1.10775,6.292995,12.549665,4.491554,0,0,1
-0.083982,0.217162,0.992956,-0.599816,0.358014,-0.928641,11.308928,1.215498,6.199202,12.293946,4.723322,0,0,1
-0.088376,0.229613,0.957556,0.255145,-2.725955,-1.386656,11.376591,1.023943,6.05915,13.429419,5.128532,0,0,1
-0.092039,0.210082,1.00736,-6.584549,-5.764123,-2.485893,10.731972,0.535152,5.808074,11.732519,5.111037,0,0,1
-0.052732,0.180785,0.9932,0.194077,-3.99313,-6.485893,10.742581,0.189011,5.152999,10.302001,2.990109,0,0,1
-0.115232,0.238402,0.982702,-13.729588,-19.809925,-1.615664,9.439717,-1.645533,4.989817,13.547076,6.50109,0,0,1
