AccX,AccY,AccZ,GyroX,GyroY,GyroZ,AngleX,AngleY,AngleZ,AccAngleX,AccAngleY,RuheState,FernstState,TranspState
0.040866,-0.111822,1.213645,-62.070751,-14.223023,-45.177647,-14.126941,2.705737,-146.995834,-5.261239,-1.920423,0,0,1
0.116306,-0.017583,0.94973,7.807115,5.685373,-40.84177,-13.09271,3.074749,-151.12085,-1.052802,-6.980601,0,0,1
-0.015042,-0.08814,1.126487,-2.834107,-2.574169,-30.246351,-13.200845,2.773716,-154.175735,-4.473502,0.762695,0,0,1
0.008884,0.054194,0.858421,7.990321,1.4869,-22.170015,-12.073704,2.85358,-156.414902,3.612211,-0.591754,0,0,1
-0.021146,0.057856,0.877952,9.288031,3.59377,-4.475359,-10.837518,3.179754,-156.866913,3.769179,1.376719,0,0,1
-0.068753,0.071528,0.928001,-0.177618,-2.955848,23.524641,-10.550439,2.908082,-154.490921,4.395492,4.224654,0,0,1
-0.070218,0.059077,1.027122,-13.185251,-2.528367,56.639145,-11.578824,2.677752,-148.77037,3.284188,3.904428,0,0,1
-0.126126,-0.180669,1.412132,-44.940979,12.204456,80.303268,-15.940751,3.93345,-140.659744,-7.262266,5.062836,0,0,1
-0.054837,0.02685,0.846214,36.448334,0.937282,64.089523,-11.978009,4.021671,-134.186707,1.813565,3.705875,0,0,1
0.006687,-0.092535,0.979515,3.822382,-36.528366,73.494102,-11.468041,0.317872,-126.763802,-5.396586,-0.389382,0,0,1
0.006442,-0.018072,0.825462,-0.696702,-15.413863,52.440674,-11.332723,-1.223091,-121.467293,-1.254134,-0.447053,0,0,1
0.013767,0.022211,0.819358,1.730779,9.196823,33.09716,-10.903704,-0.307572,-118.124481,1.552593,-0.962222,0,0,1
0.062595,0.082514,0.921165,-5.429527,1.563236,19.936855,-11.120905,-0.224129,-116.110855,5.106944,-3.871914,0,0,1
0.073337,-0.039556,1.327415,-8.238687,-6.314627,4.455939,-11.748037,-0.907886,-115.660805,-1.704277,-3.160857,0,0,1
0.093356,-0.219976,1.461204,0.891084,-0.055085,-12.994443,-11.595759,-0.967481,-116.973244,-8.544106,-3.615038,0,0,1
-0.106351,-0.090093,1.047874,41.929249,41.624306,7.921588,-7.311469,3.287323,-116.173164,-4.889053,5.774049,0,0,1
-0.012601,0.020747,0.775657,-5.002046,-3.062718,24.684946,-7.629704,2.937036,-113.679985,1.531929,0.930358,0,0,1
0.013767,0.044672,0.74636,-4.940977,1.196824,33.081894,-7.897674,2.975661,-110.338715,3.424692,-1.054812,0,0,1
0.01694,0.069819,0.858665,-22.345556,4.922014,37.417774,-9.85853,3.380798,-106.559517,4.647646,-1.126513,0,0,1
0.028171,0.096674,1.074729,-24.360825,7.731174,38.013191,-11.969829,4.048505,-102.720184,5.138295,-1.495463,0,0,1
-0.070218,0.040034,1.329124,6.707878,-6.299359,31.433037,-11.032029,3.404479,-99.545448,1.722847,3.022763,0,0,1
-0.046048,0.050043,0.976097,66.570473,-5.978749,31.952122,-4.16361,2.798562,-96.318283,2.93167,2.697417,0,0,1
-0.089017,-0.097906,1.055198,31.089558,0.219724,51.81472,-1.10874,2.860369,-91.084999,-5.282312,4.801533,0,0,1
0.005466,0.006342,0.755149,3.608641,-16.467299,19.463572,-0.719758,1.164935,-89.119179,0.481187,-0.414689,0,0,1
0.017185,0.057368,0.720726,-4.33029,4.876213,6.66968,-1.042981,1.597052,-88.445541,4.549696,-1.361564,0,0,1
0.020847,0.070795,0.965843,-30.711969,1.227358,-8.979176,-3.978167,1.661932,-89.35244,4.191259,-1.233169,0,0,1
0.022067,-0.041265,1.3218,-28.986778,-3.276459,-14.719634,-6.803473,1.285269,-90.839127,-1.787882,-0.955996,0,0,1
0.04697,-0.271978,1.617698,10.249863,22.204456,-28.017344,-5.843667,3.424559,-93.668877,-9.539742,-1.640105,0,0,1
-0.024563,-0.137701,1.200218,22.555206,16.097588,-33.818871,-3.62515,4.972703,-97.084579,-6.543556,1.164804,0,0,1
-0.023343,-0.010503,0.758079,23.56284,-4.604703,-26.734901,-1.236266,4.452746,-99.784805,-0.793424,1.763525,0,0,1
-0.049222,0.029292,0.765159,-2.864641,-1.551268,-2.536428,-1.451327,4.283707,-100.040985,2.187785,3.678004,0,0,1
-0.031888,0.056879,0.857688,-13.933343,0.036518,9.41777,-2.725592,4.244138,-99.08979,3.791521,2.124537,0,0,1
-0.060452,0.073969,1.084251,-24.666168,8.097587,23.768915,-5.034604,5.024431,-96.689133,3.896724,3.183823,0,0,1
-0.075833,-0.05982,1.366233,-33.643269,3.685373,26.135328,-8.313987,5.3522,-94.049461,-2.503217,3.173917,0,0,1
-0.015042,-0.089605,0.961448,14.799481,11.80751,19.982656,-6.789331,6.431712,-92.031212,-5.32382,0.89246,0,0,1
0.092868,-0.038091,0.78054,15.684978,-16.848978,18.074259,-5.156532,4.499823,-90.205711,-2.77435,-6.777129,0,0,1
0.029392,0.033198,0.734153,4.601007,-1.154321,6.39487,-4.546254,4.249767,-89.55983,2.58703,-2.290257,0,0,1
0.010593,0.035151,0.843284,-10.009679,0.29606,-9.696733,-5.398352,4.179695,-90.5392,2.386708,-0.719049,0,0,1
0.030368,0.108637,1.011985,-22.253954,-4.238291,-17.681465,-7.370591,3.642414,-92.325027,6.124534,-1.709031,0,0,1
0.003024,-0.002935,1.277366,-24.391359,-2.879512,-14.933374,-9.640069,3.281839,-93.833298,-0.13165,-0.135658,0,0,1
0.104587,-0.016607,1.004173,33.639175,-1.719207,-32.276882,-6.136509,2.92713,-97.093262,-0.94237,-5.945242,0,0,1
0.028903,-0.13355,0.994407,39.639175,12.463999,-25.742535,-2.243212,4.069272,-99.69326,-7.645944,-1.650077,0,0,1
-0.057278,0.092036,0.610374,3.028489,3.151022,-17.589863,-1.727832,4.405803,-101.469833,8.537829,5.301432,0,0,1
-0.03262,-0.006841,0.826927,-13.643267,3.990717,5.295634,-3.053159,4.757867,-100.934975,-0.473639,2.258921,0,0,1
-0.079739,0.103999,0.987083,-37.307392,-20.146688,25.173496,-6.56488,2.760453,-98.392448,5.995077,4.593167,0,0,1
-0.051907,0.033198,1.356956,0.448336,-8.5131,44.349072,-6.361198,1.906418,-93.913193,1.40043,2.189995,0,0,1
-0.064847,-0.076666,1.044944,66.158257,8.097587,46.364338,0.230608,2.74062,-89.230392,-4.188133,3.541586,0,0,1
-0.091214,-0.207037,1.075218,24.631542,-13.932947,47.47884,2.446805,1.401963,-84.435028,-10.861013,4.761898,0,0,1
0.084812,-0.032232,0.729026,3.440702,-17.016916,33.585712,2.688139,-0.442996,-81.04287,-2.514593,-6.629277,0,0,1
-0.02969,0.04394,0.781028,-5.628,6.693007,33.036095,2.14167,0.271809,-77.706223,3.217695,2.173591,0,0,1
-0.033597,0.080561,0.900901,-6.620367,-2.268825,31.600977,1.545681,0.084349,-74.514526,5.106421,2.127221,0,0,1
-0.087063,-0.032232,1.228294,9.226962,-15.627604,37.524643,2.398064,-1.383097,-70.724541,-1.499406,4.053047,0,0,1
0.002048,-0.209722,1.05471,43.089554,-0.482566,69.234566,6.390185,-1.405382,-63.73185,-11.246181,-0.109111,0,0,1
-0.088284,-0.069341,0.914085,30.982687,-11.306993,87.921585,9.242686,-2.386422,-54.851768,-4.318059,5.500924,0,0,1
-0.108792,-0.144292,0.764183,41.333832,27.929647,113.356697,12.937289,0.585054,-43.40274,-10.588352,7.963538,0,0,1
-0.033108,-0.149664,0.801536,1.868183,16.479267,116.883415,12.652102,2.250974,-31.597515,-10.567719,2.325184,0,0,1
-0.058987,-0.222173,0.952171,5.56284,3.807511,130.226929,12.687475,2.651871,-18.444595,-13.109767,3.452458,0,0,1
-0.193753,-0.455572,1.378685,-42.467697,3.838045,165.204025,7.867886,3.130735,-1.758988,-18.119335,7.60055,0,0,1
-0.024319,-0.198248,1.039573,-19.536396,15.609037,127.402504,5.56094,4.639431,11.108665,-10.793839,1.316395,0,0,1
-0.242825,-0.03565,0.962669,5.318565,26.051785,124.242195,5.935023,7.408203,23.657127,-2.056473,14.147753,0,0,1
-0.146634,-0.135259,1.002464,-8.223419,-6.910047,119.600975,4.850282,6.741045,35.736828,-7.604372,8.248133,0,0,1
-0.083646,-0.042486,0.9468,-5.887542,-8.100886,105.555176,4.11934,5.905272,46.3979,-2.55936,5.043668,0,0,1
0.029147,0.019038,0.931419,-10.635633,-11.826077,79.433037,3.007646,4.580781,54.420635,1.170353,-1.792033,0,0,1
0.101901,0.098627,0.976585,-5.017313,-25.551268,45.219299,2.565598,1.841561,58.987785,5.73594,-5.927015,0,0,1
0.083591,-0.287359,1.355491,47.975052,35.028885,22.226931,7.023912,5.202842,61.232704,-11.947232,-3.45233,0,0,1
-0.042142,-0.058599,0.97097,4.646809,8.18919,16.852884,7.274367,5.958965,62.934845,-3.450435,2.480659,0,0,1
0.027438,0.014399,0.816185,20.891085,-6.986382,19.524641,9.216882,5.10977,64.906837,1.010123,-1.925144,0,0,1
-0.029446,0.012934,0.95095,-2.81884,-17.871878,30.99029,8.769113,3.274085,68.036858,0.778871,1.77344,0,0,1
-0.018704,0.137202,0.915794,-9.261587,-9.795543,31.585709,7.847394,2.262183,71.227013,8.518771,1.157131,0,0,1
-0.077054,0.124262,1.010032,-0.147084,14.234991,33.204033,7.81576,3.71252,74.58062,6.993619,4.33003,0,0,1
-0.071438,0.066645,1.262718,1.120092,11.990717,39.204033,7.830639,4.889782,78.54023,3.016398,3.233576,0,0,1
-0.089505,0.007563,0.981468,64.753677,19.563236,31.41777,14.09214,6.832566,81.713425,0.439676,5.210517,0,0,1
-0.033353,-0.037847,0.866478,33.776577,-13.551269,24.50174,17.103519,5.398655,84.188103,-2.499204,2.202249,0,0,1
0.042575,0.070551,0.739524,-18.131817,-27.902412,13.081893,15.075575,2.4633,85.509377,5.440619,-3.280081,0,0,1
0.00278,0.096918,0.753685,-2.009679,-1.749741,2.211664,14.721697,2.236652,85.732758,7.327565,-0.209632,0,0,1
0.033298,0.136713,0.941673,-16.849373,-23.963482,-13.941008,12.924622,-0.22007,84.324715,8.255478,-2.004159,0,0,1
0.069187,0.02978,1.259788,-16.513496,-17.64287,-14.261619,11.058665,-2.024812,82.884293,1.35211,-3.142603,0,0,1
0.119724,-0.225103,1.499046,23.517038,1.028885,-34.979176,12.994944,-1.972795,79.351395,-8.513257,-4.515906,0,0,1
0.000827,-0.121587,1.115501,39.532303,14.891479,-35.910473,16.523542,-0.460225,75.724434,-6.220568,-0.042235,0,0,1
-0.037015,0.029292,0.689476,32.356731,19.273159,-20.170015,19.444326,1.518041,73.687263,2.429183,3.070223,0,0,1
-0.057034,0.053217,0.6968,-6.269221,4.922014,-3.803603,18.521971,2.068177,73.303101,4.352919,4.665792,0,0,1
-0.066556,0.140131,0.799827,-27.566931,-3.826077,13.982656,15.621036,1.741823,74.715347,9.903929,4.685722,0,0,1
-0.032132,0.086909,1.331077,-28.086016,7.532701,33.341438,12.603353,2.480171,78.082832,3.734569,1.379899,0,0,1
-0.058499,-0.170904,1.667503,-24.452427,38.494534,44.303268,9.814019,6.280732,82.557465,-5.848288,1.998754,0,0,1
-0.073147,-0.086919,1.100852,17.059023,2.158656,34.608612,11.216148,6.444576,86.052933,-4.504615,3.789739,0,0,1
0.04819,-0.007818,0.72512,18.005589,-17.826077,27.79945,12.761692,4.475221,88.86068,-0.61635,-3.801983,0,0,1
0.025241,0.061274,0.693626,-6.11655,-2.803176,4.959756,12.001943,4.066738,89.361618,5.045001,-2.07601,0,0,1
-0.007474,0.082758,0.80471,-17.551664,-1.032184,-14.292153,10.142071,3.893824,87.918114,5.871541,0.52932,0,0,1
0.03989,0.160883,1.084007,-29.108915,-11.10852,-19.360855,7.226756,2.674733,85.962669,8.436325,-2.084625,0,0,1
-0.015774,0.061274,1.356468,-30.162352,-6.971115,-19.024977,4.148475,1.94455,84.041145,2.586214,0.665586,0,0,1
0.08237,-0.004156,0.995384,39.211693,0.616671,-30.063145,7.941911,1.872086,81.004768,-0.238396,-4.730528,0,0,1
0.004733,-0.048833,0.908226,28.142992,-2.574169,-25.818871,10.507113,1.57389,78.397064,-3.077676,-0.298175,0,0,1
-0.050687,0.076411,0.654319,11.333833,2.922014,-4.108946,11.551616,1.919628,77.982063,6.641047,4.399763,0,0,1
-0.023343,0.093256,0.753196,-9.337923,-3.719207,8.104794,10.537411,1.548342,78.800644,7.054754,1.761678,0,0,1
-0.036038,0.169428,0.907005,-26.391359,4.723541,19.371969,7.9259,2.029645,80.75721,10.572734,2.236691,0,0,1
-0.043118,0.131586,1.348411,-18.192884,7.960182,19.600977,6.078066,2.813409,82.736908,5.570805,1.822871,0,0,1
-0.088528,0.041254,1.064231,39.593372,16.754076,17.219297,9.919703,4.510492,84.476059,2.212297,4.751661,0,0,1
0.007175,-0.030767,0.945579,17.837648,-31.077986,12.486473,11.449608,1.335493,85.73719,-1.863569,-0.434507,0,0,1
0.025485,0.04687,0.682884,9.868183,-7.276459,-1.986809,12.275842,0.545914,85.536522,3.923607,-2.132285,0,0,1
-0.045804,0.060786,0.774681,-14.147083,-4.879512,-10.246351,10.719621,0.119489,84.50164,4.478755,3.373382,0,0,1
0.01572,0.136713,0.948997,-14.421893,-2.40623,-19.650932,9.24168,-0.139855,82.516899,8.196573,-0.939298,0,0,1
0.043308,0.087885,1.236106,-22.223419,-2.681039,-20.460093,6.938458,-0.442458,80.450432,4.064313,-2.001518,0,0,1
0.129245,-0.041753,1.128929,28.707878,-4.864245,-38.078411,9.599108,-1.045604,76.604515,-2.104385,-6.526634,0,0,1
0.021335,-0.082281,0.977562,33.517036,-0.390963,-35.528793,12.628442,-1.088307,73.016106,-4.810071,-1.245859,0,0,1
-0.000149,0.08642,0.680442,12.509405,5.059419,-27.208183,13.758817,-0.56551,70.268082,7.238167,0.012481,0,0,1
-0.028714,0.059077,0.751487,4.356733,9.899114,-6.093679,14.004704,0.469243,69.652618,4.491683,2.181448,0,0,1
-0.064603,0.169672,0.860862,-18.162352,-11.978749,10.058992,12.149287,-0.641579,70.668579,11.119364,4.210948,0,0,1
-0.024075,0.120844,1.256614,-24.528763,-11.383329,31.921587,9.588284,-1.733619,73.892662,5.492044,1.092544,0,0,1
-0.040433,0.07226,1.050804,46.402534,-5.505466,21.875786,14.068061,-2.199911,76.102119,3.930946,2.198342,0,0,1
0.004978,-0.173589,1.265159,25.807116,0.601404,17.952122,16.184837,-2.100852,77.915283,-7.812569,-0.223326,0,0,1
0.007663,0.071528,0.678978,10.555206,-9.719207,9.41777,17.026161,-3.033703,78.866478,6.013342,-0.643067,0,0,1
0.023288,0.071284,0.722923,-7.398993,-7.413863,-1.742535,16.065855,-3.743577,78.690483,5.628536,-1.836177,0,0,1
0.027194,0.135249,0.886985,-19.612732,-7.383329,-8.872306,13.976583,-4.434229,77.79438,8.665736,-1.736044,0,0,1
-0.023343,0.022456,1.359397,-15.429526,5.746442,-5.528794,12.188763,-3.757089,77.23597,0.94623,0.983619,0,0,1
0.048679,-0.11939,1.538597,12.356733,-6.055085,-17.528795,13.079359,-4.317414,75.465561,-4.434866,-1.806714,0,0,1
-0.035794,-0.095953,1.223899,38.692608,19.471632,-15.788336,16.557949,-2.270363,73.870941,-4.480862,1.670063,0,0,1
-0.024563,0.030756,0.680687,23.242229,0.799877,-0.933374,18.579016,-2.104492,73.776672,2.58543,2.064593,0,0,1
-0.034573,0.080561,0.664085,-7.582199,3.181556,15.784183,17.5951,-1.68832,75.370872,6.907565,2.958561,0,0,1
-0.016751,0.109858,0.850608,-17.597466,-0.40623,21.73838,15.648557,-1.672385,77.566452,7.357725,1.118886,0,0,1
-0.015042,0.123042,1.281028,-27.597466,1.27316,32.791817,12.713709,-1.499527,80.878426,5.485997,0.669662,0,0,1
-0.04971,-0.205328,1.605735,37.196426,31.242626,29.402504,15.995468,1.658036,83.848076,-7.283495,1.75887,0,0,1
-0.0668,-0.135992,1.196311,8.753679,11.120487,39.387238,16.412493,2.789093,87.826187,-6.475305,3.175561,0,0,1
0.033298,0.022944,0.750999,5.104824,-22.879513,24.746016,16.624481,0.417946,90.325531,1.748188,-2.537539,0,0,1
0.049899,0.046137,0.760521,-4.345557,0.448732,2.089527,15.931151,0.379061,90.536575,3.464181,-3.747052,0,0,1
0.036472,0.11645,0.822776,-11.52113,-1.444398,-18.154749,14.633125,0.178252,88.702942,8.047918,-2.513108,0,0,1
0.030856,0.036372,1.260765,-17.612732,7.97545,-34.643295,12.630194,0.936068,85.203972,1.651963,-1.401417,0,0,1
0.043796,-0.068365,1.466575,-19.963877,0.952549,-34.612762,10.348211,0.977457,81.708084,-2.667737,-1.708644,0,0,1
0.066013,-0.061773,1.152366,27.303299,24.051785,-41.986809,12.782461,3.273076,77.467415,-3.063409,-3.273885,0,0,1
0.030124,0.049311,0.719017,21.074291,-1.795543,-30.628031,14.691143,2.982023,74.373985,3.919843,-2.393454,0,0,1
0.006687,0.035639,0.780052,6.402534,11.303694,-18.918108,15.08336,4.03141,72.463257,2.615826,-0.49061,0,0,1
-0.013333,0.114741,0.826927,-12.238687,1.990717,-7.131847,13.72828,4.166122,71.742943,7.898657,0.914968,0,0,1
-0.015042,0.090815,1.22805,-16.162352,12.250259,8.639145,11.938545,5.309327,72.615494,4.229039,0.699852,0,0,1
-0.002347,-0.120367,1.496604,-19.154716,35.395298,9.036091,9.711877,8.708359,73.528137,-4.598198,0.089551,0,0,1
-0.024563,-0.015386,1.090843,4.448336,3.97545,3.509374,9.941777,8.953479,73.882584,-0.807893,1.289834,0,0,1
0.055271,0.044672,0.753685,11.211695,-17.505466,-7.589862,10.920336,6.957981,73.116005,3.383002,-4.186884,0,0,1
0.022556,0.045893,0.818382,1.608641,5.517434,-31.360857,10.925322,7.333411,69.948555,3.208445,-1.576271,0,0,1
-0.062649,0.105952,0.874534,-10.482962,-6.955848,-36.750168,9.807019,6.57961,66.236786,6.890351,4.067881,0,0,1
-0.046048,0.051264,1.209495,-7.444794,-6.039818,-30.322687,8.922498,5.893764,63.174194,2.42526,2.178356,0,0,1
-0.052396,0.054194,1.235618,-24.040213,-20.238291,-17.437191,6.41473,3.821219,61.413036,2.509115,2.425803,0,0,1
0.046237,0.085444,0.948265,18.417803,-7.581802,-17.650932,8.212283,2.938742,59.630291,5.142683,-2.78028,0,0,1
-0.085843,0.001948,0.99636,32.341465,24.906748,2.639145,11.251428,5.443722,59.896843,0.111592,4.924226,0,0,1
-0.10806,0.098627,0.864036,5.547573,9.349495,22.028458,11.704739,6.401922,62.121716,6.462067,7.083087,0,0,1
-0.07803,0.133295,0.828636,-4.482962,-7.200123,46.547543,11.208898,5.667449,66.823021,9.098812,5.311632,0,0,1
-0.073147,0.092768,1.073509,-0.315023,0.540335,69.509369,11.052092,5.685254,73.843468,4.927619,3.883604,0,0,1
-0.04556,-0.019048,1.215843,-41.5364,1.86858,84.135323,6.701838,5.799415,82.341133,-0.896938,2.145697,0,0,1
-0.07388,0.165034,0.702659,3.608641,11.242625,85.265099,7.187936,6.913108,90.952911,13.147566,5.844324,0,0,1
-0.045804,-0.01856,0.928489,4.799481,-22.070353,66.013191,7.496355,4.646796,97.620247,-1.143772,2.823631,0,0,1
-0.05972,0.047358,0.869651,-7.475328,18.280792,71.845253,6.668715,6.441745,104.876617,3.109723,3.922591,0,0,1
-0.086087,0.063959,0.945335,-6.315023,6.830411,58.639145,5.987373,7.092813,110.799171,3.854717,5.191484,0,0,1
-0.026028,0.086909,1.073753,6.448336,-2.085619,40.898689,6.598403,6.772204,114.929939,4.626034,1.384083,0,0,1
-0.059476,0.105219,1.029319,14.524673,-26.161955,38.990292,8.020627,4.113047,118.867958,5.826973,3.289852,0,0,1
-0.045315,-0.052496,1.187522,40.875816,2.372396,50.562809,11.855516,4.30927,123.9748,-2.52933,2.183196,0,0,1
-0.119778,-0.006841,1.049827,21.822382,3.685373,72.089523,13.770967,4.718039,131.255844,-0.370962,6.508787,0,0,1
-0.084866,-0.039312,0.916771,22.173527,31.776978,96.990288,15.641384,7.874644,141.051865,-2.444954,5.284017,0,0,1
-0.069241,-0.006109,0.861839,-2.574565,21.517435,113.295631,15.06563,9.938811,152.49472,-0.404813,4.593234,0,0,1
-0.048733,-0.021001,0.94973,-12.727237,29.349495,124.242195,13.479274,12.703782,165.043182,-1.265117,2.936721,0,0,1
0.019626,-0.057134,1.076438,-19.994411,24.112854,127.814713,11.169887,14.815536,177.952469,-3.037742,-1.043052,0,0,1
-0.034817,-0.104742,1.105979,9.654443,23.410564,19.020824,20.280773,37.451599,196.935257,-5.407394,1.795108,0,0,1
-0.020657,0.03979,0.837181,-8.940977,-26.345161,27.173496,19.053347,34.148975,199.652603,2.720281,1.411879,0,0,1
0.006442,0.043208,0.94973,-6.208153,-5.642871,35.631512,18.109892,32.899696,203.251389,2.60479,-0.388252,0,0,1
-0.020413,0.077875,0.948265,-7.872275,1.624305,37.738384,17.062372,32.427059,207.062973,4.693753,1.229067,0,0,1
-0.027493,0.094233,1.045433,-2.315023,15.089952,45.249832,16.594959,33.302128,211.633209,5.148822,1.500358,0,0,1
-0.001614,0.022456,1.209495,-16.253954,10.326594,50.562809,14.675517,33.659744,216.740051,1.063634,0.076457,0,0,1
-0.015042,0.132807,0.753929,42.967419,-16.757374,34.425407,18.83469,31.350416,220.21701,9.988409,1.125657,0,0,1
-0.063382,-0.161871,1.221946,23.547573,2.479266,36.226933,20.638016,31.027679,223.875931,-7.535994,2.943578,0,0,1
-0.006009,0.083247,0.771019,5.288031,-4.833711,16.333801,20.87191,29.937565,225.52565,6.162147,0.443935,0,0,1
0.023044,0.098627,0.834983,-15.047847,-2.421497,-4.139481,19.099716,29.067736,225.107559,6.733968,-1.569944,0,0,1
0.03281,0.133295,1.001976,-13.032579,3.303694,-24.933374,17.579231,28.776199,222.589294,7.573701,-1.859106,0,0,1
0.051364,0.018061,1.203147,4.295664,-7.902413,-36.84177,17.670017,27.36961,218.868271,0.859248,-2.444288,0,0,1
-0.005276,-0.205816,1.482933,14.005589,21.288427,-56.918106,18.544861,28.933384,213.119537,-7.901544,0.201926,0,0,1
0.120212,-0.136968,1.098167,15.639176,33.257893,-69.482994,19.580576,31.522596,206.101761,-7.067682,-6.19941,0,0,1
0.020847,0.04809,0.784202,9.272763,1.532702,-61.742535,20.176943,31.013454,199.865768,3.50797,-1.519898,0,0,1
-0.122708,0.098139,0.868675,7.77658,10.509801,-33.666199,20.670788,31.593248,196.465485,6.382864,7.990171,0,0,1
-0.138089,0.091547,0.904808,-8.116549,-16.421497,-6.780702,19.568232,29.508661,195.78064,5.711767,8.633931,0,0,1
-0.100247,0.081293,1.18679,-11.215786,-10.604703,27.707848,18.144823,27.965176,198.579132,3.904698,4.817027,0,0,1
-0.047269,-0.089605,1.379905,-36.238689,-1.581802,48.868153,14.12076,27.288462,203.514816,-3.713148,1.957776,0,0,1
-0.03555,0.013667,0.869651,6.081923,3.517434,44.791817,14.458324,27.137661,208.038788,0.899573,2.340558,0,0,1
-0.002835,0.033442,0.809593,9.165894,-11.795543,31.967388,15.123705,25.431395,211.267487,2.365361,0.200462,0,0,1
0.006198,0.037104,0.840355,-2.070748,7.013618,21.524641,14.66683,25.608532,213.441483,2.528059,-0.42218,0,0,1
0.01572,0.114497,0.883567,-13.032579,-9.642871,6.959756,13.231175,24.121695,214.144424,7.382341,-1.010804,0,0,1
0.042819,0.101557,1.156517,1.730779,5.80751,-14.170015,13.238164,24.171843,212.713257,5.01502,-2.112253,0,0,1
0.050876,0.042475,1.175071,-24.177618,3.70064,-15.39139,10.621665,24.005144,211.158722,2.068223,-2.477518,0,0,1
0.094577,0.044917,0.907249,15.394901,-2.757375,-32.429554,11.9894,23.133232,207.883331,2.81906,-5.944136,0,0,1
0.001071,-0.019292,0.883079,15.66971,-6.589436,-25.177649,13.27557,22.016954,205.340393,-1.251531,-0.069491,0,0,1
-0.024808,0.062006,0.805442,-2.024946,2.311328,-12.429558,12.897632,21.84057,204.085007,4.400109,1.75895,0,0,1
-0.048245,0.064448,0.865257,-7.689069,3.471633,-1.727267,11.963678,21.811035,203.910553,4.253168,3.182604,0,0,1
-0.029446,0.117182,1.12014,-9.627999,-2.055085,14.39487,10.890828,21.201355,205.364441,5.970162,1.497678,0,0,1
-0.089261,0.082514,1.187522,-25.597466,14.586136,32.761284,8.218647,22.306829,208.673325,3.963623,4.288283,0,0,1
-0.054349,0.131342,0.708763,34.005585,5.38003,35.585712,11.629517,22.479443,212.267487,10.468456,4.31179,0,0,1
0.032321,-0.016363,0.936058,22.15826,-17.398596,29.249832,13.570134,20.268196,215.221725,-1.000863,-1.977288,0,0,1
0.045017,0.089594,0.719993,6.814748,9.715907,6.318534,14.114847,20.753504,215.859894,7.079604,-3.550372,0,0,1
0.001071,0.072016,0.851341,-10.513495,0.097587,-13.299787,12.888629,20.346659,214.516617,4.835216,-0.071842,0,0,1
0.068698,0.108393,1.095726,-14.299755,-8.848978,-38.337952,11.328238,18.992451,210.644485,5.638522,-3.570173,0,0,1
0.037692,0.083735,1.188255,-8.727237,-1.306993,-42.857037,10.318429,18.446989,206.315918,4.02888,-1.812367,0,0,1
0.09653,0.053217,0.928733,22.356733,-5.91768,-66.307419,12.39017,17.373835,199.618866,3.261981,-5.924228,0,0,1
-0.009427,-0.027105,0.977562,23.455971,4.967815,-59.666199,14.432275,17.529118,193.592575,-1.588167,0.552281,0,0,1
-0.02139,0.042475,0.76931,-0.376092,-3.856611,-45.101311,14.169584,16.828611,189.037338,3.158986,1.590204,0,0,1
-0.049954,0.054926,0.877464,-17.429527,-12.390963,-24.444824,12.232538,15.330621,186.568405,3.576073,3.251986,0,0,1
-0.058255,0.092524,1.076683,-12.895175,-1.780276,-3.208184,10.809612,14.909512,186.244385,4.904466,3.08567,0,0,1
-0.012356,0.107905,1.150169,-16.147083,9.731174,3.967389,9.102367,15.58677,186.645096,5.359293,0.612823,0,0,1
0.029636,0.143549,0.746116,34.4636,16.570869,-21.742535,12.549168,16.870544,184.449097,10.881997,-2.233671,0,0,1
0.076999,0.010493,1.005394,28.188795,-21.978748,-43.269249,15.100236,14.270093,180.078903,0.596193,-4.379265,0,0,1
0.093356,0.089594,0.828392,2.036122,-21.963482,-62.536427,15.122454,11.682889,173.762726,6.134267,-6.392908,0,0,1
0.00278,0.02685,0.931663,4.341465,-6.375695,-82.521164,15.282739,10.814747,165.428085,1.650774,-0.170911,0,0,1
-0.003323,0.103999,0.97097,-0.92571,-12.879513,-88.185287,15.007729,9.327538,156.521378,6.113489,0.194985,0,0,1
0.05405,0.006586,1.177513,8.784214,-0.253558,-92.551697,15.583439,9.063329,147.17366,0.320144,-2.628087,0,0,1
0.0582,-0.057623,1.042991,38.555206,-20.543634,-116.673836,19.024818,6.784873,135.389603,-3.157327,-3.18901,0,0,1
0.034274,-0.161871,1.310569,-0.528763,10.18919,-101.055511,18.451212,7.627966,125.182999,-7.038655,-1.486783,0,0,1
0.097995,0.028315,0.792747,-2.253954,-19.108521,-89.94101,17.899694,5.443197,116.098953,2.030153,-7.042401,0,0,1
0.022067,0.001704,0.873069,5.211695,-2.955848,-76.750168,18.05979,5.012807,108.347183,0.111765,-1.447876,0,0,1
-0.04263,0.087153,0.922386,-3.154717,-3.016917,-54.566959,17.494179,4.666625,102.835922,5.391921,2.634438,0,0,1
-0.013333,0.052973,1.250267,-12.788305,-24.268826,-30.460093,15.92703,2.183373,99.759453,2.426004,0.610439,0,0,1
0.047458,0.015131,0.937278,37.669708,-25.184856,-50.551693,19.355513,-0.411057,94.653732,0.923715,-2.898253,0,0,1
0.048435,-0.055669,1.115745,20.234596,-3.91768,-50.444824,20.914148,-0.840259,89.558807,-2.853687,-2.482569,0,0,1
0.038181,0.06225,0.792259,12.372001,-2.452031,-53.437191,21.810198,-1.121168,84.161652,4.487509,-2.750608,0,0,1
0.014987,0.059809,0.873558,-5.841741,0.433465,-54.032608,20.874102,-1.075452,78.704361,3.916132,-0.980611,0,0,1
0.018649,0.145258,0.980247,-4.11655,-5.520734,-64.612762,20.217714,-1.621949,72.178474,8.427554,-1.078163,0,0,1
-0.064358,0.085932,1.166282,2.005588,-10.390963,-42.933372,20.096025,-2.555007,67.842201,4.207582,3.150001,0,0,1
0.066745,0.021235,0.888938,51.074287,-21.200123,-62.307419,24.77673,-4.68815,61.549152,1.364575,-4.292723,0,0,1
0.034763,-0.116705,1.261009,17.501772,17.654839,-39.681465,25.90781,-2.878358,57.541325,-5.285585,-1.572378,0,0,1
-0.028714,0.099848,0.749778,0.906351,-4.833711,-22.765436,25.630964,-3.255752,55.242016,7.579969,2.173981,0,0,1
-0.020413,0.059809,0.831321,-1.13945,-7.551268,2.425405,25.087839,-3.910002,55.48698,4.113797,1.40299,0,0,1
0.004245,0.122553,0.95388,-15.505862,-9.10852,26.791817,23.197735,-4.738422,58.192955,7.321106,-0.252907,0,0,1
0.036472,0.137934,1.164573,-7.719603,-13.139054,42.852886,22.104723,-5.979784,62.521095,6.751465,-1.781339,0,0,1
-0.070462,-0.000005,1.117698,30.662077,-9.398596,46.058994,24.697556,-6.718317,67.173058,-0.000275,3.607266,0,0,1
-0.086087,-0.123296,1.161888,8.463603,3.547969,66.684944,24.920513,-6.148495,73.908234,-6.040968,4.213859,0,0,1
0.005222,0.005854,0.795921,-0.956244,-2.528367,55.219299,24.335882,-6.2833,79.485382,0.421394,-0.375876,0,0,1
-0.049222,0.002192,0.845726,-1.276855,7.960182,47.020824,23.725746,-5.303118,84.234482,0.148244,3.330876,0,0,1
-0.016019,0.105952,0.979759,-11.169985,-12.009283,37.753651,22.269051,-6.36711,88.0476,6.171194,0.931245,0,0,1
-0.027981,0.025874,1.285423,15.349099,4.326594,32.242199,23.36598,-5.786586,91.304062,1.152845,1.246781,0,0,1
-0.02847,-0.224126,1.472679,29.257496,7.517434,46.471207,25.621532,-4.904881,95.99765,-8.651832,1.094896,0,0,1
-0.079739,-0.130865,1.274436,25.913984,11.822778,58.471207,27.557041,-3.565333,101.903244,-5.851471,3.561551,0,0,1
-0.052151,-0.037603,0.827171,31.242229,11.21209,75.78418,30.046303,-2.312176,109.557449,-2.597712,3.60389,0,0,1
-0.077054,-0.05396,0.842796,16.142992,15.609037,102.211662,30.970247,-0.616686,119.880829,-3.648218,5.213203,0,0,1
-0.052151,-0.008062,0.913108,-0.742504,17.31896,122.654411,30.267248,1.175252,132.268921,-0.505039,3.268719,0,0,1
-0.009915,-0.097906,1.077659,-18.26922,25.547968,141.127686,27.749796,3.690985,146.522812,-5.190875,0.524975,0,0,1
-0.021878,-0.064703,1.160423,-52.895176,25.044151,149.310898,21.89542,6.117604,161.60321,-3.190817,1.078418,0,0,1
-0.087552,0.02685,0.866966,-2.086015,4.738809,133.997925,21.286337,6.579575,175.137009,1.764923,5.7638,0,0,1
-0.086819,-0.140386,1.063987,14.616275,10.967815,121.234566,22.157494,7.626078,187.381699,-7.491775,4.624983,0,0,1
-0.196438,-0.082769,0.940696,-0.238687,18.112854,129.14296,21.592266,9.501387,200.42514,-4.922687,11.751015,0,0,1
-0.110501,-0.083257,0.951927,-0.711969,8.677739,125.081894,20.990644,10.302209,213.058411,-4.965305,6.596381,0,0,1
-0.003812,-0.028082,0.953636,-5.154717,22.555601,113.265099,20.026886,12.333297,224.498184,-1.686678,0.228901,0,0,1
0.005466,0.057124,0.919212,-25.414259,14.494534,91.753647,17.181963,13.5145,233.765305,3.555955,-0.340032,0,0,1
0.073337,0.03979,0.936302,-5.292122,15.822777,61.204033,16.363029,14.720857,239.946915,2.425985,-4.474592,0,0,1
0.039646,-0.023687,1.112083,-16.757771,0.036518,61.753651,14.352697,14.389231,246.184036,-1.219423,-2.041255,0,0,1
0.07114,0.065424,0.961937,-6.482962,-11.887146,56.028458,13.501566,12.84046,251.842911,3.880309,-4.219874,0,0,1
0.024997,0.024165,0.996605,-9.398992,-15.200123,47.662048,12.328994,11.050415,256.656769,1.388535,-1.436383,0,0,1
0.066745,0.107661,0.938743,-7.979145,-3.520734,40.669682,11.42316,10.400116,260.764404,6.526104,-4.040518,0,0,1
0.07114,0.034907,1.156517,12.127726,18.815144,38.471207,12.429609,11.98407,264.649994,1.725554,-3.518345,0,0,1
0.066257,-0.179205,1.459495,-19.94861,14.250259,33.036095,10.066647,13.103281,267.986633,-6.992913,-2.579929,0,0,1
0.03281,-0.023199,0.990989,23.715511,18.463999,5.295634,12.18587,14.630869,268.521484,-1.340296,-1.895731,0,0,1
0.021335,-0.013189,0.886985,9.700245,-6.009283,1.921588,12.885251,13.715899,268.715576,-0.851646,-1.377737,0,0,1
0.010104,0.068354,0.805687,-3.13945,-17.658138,-8.139482,12.413783,11.679459,267.893494,4.848951,-0.715964,0,0,1
0.02695,0.065668,0.861839,-10.605099,3.303694,-26.20055,11.202918,11.737152,265.247223,4.355155,-1.785915,0,0,1
0.050144,0.109614,1.055931,-10.116549,-10.711574,-41.269249,10.095922,10.388092,261.079041,5.919894,-2.704284,0,0,1
0.021823,0.07104,1.159935,-7.689069,-20.772642,-36.322685,9.20302,8.102736,257.410461,3.504052,-1.075832,0,0,1
0.061374,0.003901,0.983665,37.455967,10.082319,-50.215816,12.730887,8.867227,252.338669,0.226773,-3.570212,0,0,1
0.018405,-0.101812,1.067894,25.028488,6.876213,-40.337952,14.844685,9.35083,248.264542,-5.445264,-0.982946,0,0,1
0.035739,0.052973,0.761253,4.417801,-11.413863,-27.345589,15.06459,7.980439,245.50264,3.976247,-2.68147,0,0,1
-0.019681,0.034418,0.855735,-0.208153,0.555602,-8.078413,14.788748,7.902152,244.686722,2.302639,1.316423,0,0,1
-0.041409,0.124018,0.908958,-14.116549,-7.627604,11.280366,13.250946,7.040818,245.826035,7.761499,2.584494,0,0,1
-0.01138,0.102778,1.181663,-9.35319,-1.978749,26.913954,12.159562,6.715139,248.544342,4.970692,0.549689,0,0,1
-0.075833,-0.041021,1.377952,-13.643267,18.021252,42.883423,10.531908,8.427552,252.875565,-1.70259,3.148596,0,0,1
-0.041897,-0.044683,0.984642,20.280397,11.868579,39.127697,12.276704,9.482433,256.827454,-2.595958,2.43402,0,0,1
-0.03262,0.007319,0.796897,14.05139,-21.062719,48.120064,13.432492,7.254876,261.687592,0.52576,2.343932,0,0,1
0.001804,0.03979,0.84304,5.715511,1.86858,37.448307,13.783607,7.292281,265.469879,2.702218,-0.12245,0,0,1
-0.063138,0.070063,0.867454,-0.024946,1.639572,31.906321,13.597577,7.39171,268.692413,4.605541,4.14947,0,0,1
-0.044827,0.119135,0.950706,-3.872275,-7.245924,33.875786,13.085043,6.580247,272.113861,7.134794,2.678659,0,0,1
-0.090481,0.068842,1.180686,21.593374,-8.604703,36.1964,15.0272,5.684446,275.769684,3.327233,4.374873,0,0,1
-0.006985,-0.14649,1.245384,25.791847,3.547969,49.387238,17.145363,5.928319,280.757782,-6.708553,0.319168,0,0,1
-0.179837,-0.040044,0.927757,25.165894,-5.123787,74.05899,19.244848,5.521805,288.237732,-2.426394,10.96024,0,0,1
-0.140774,-0.055669,0.941429,26.402534,18.173923,102.944489,21.406334,7.380023,298.635132,-3.347,8.489968,0,0,1
-0.082181,-0.015142,0.8572,3.77658,13.853312,115.860519,21.331867,8.713133,310.337036,-1.007383,5.475419,0,0,1
-0.022122,-0.004156,0.910179,-8.971511,18.051785,116.074257,20.012001,10.353483,322.060547,-0.261526,1.392297,0,0,1
0.058933,-0.044195,1.129661,-8.040214,25.929647,113.524635,18.771194,12.65325,333.52655,-2.237355,-2.984044,0,0,1
-0.089993,-0.213628,1.502708,-25.368458,21.929647,134.104797,15.723265,14.638645,347.071136,-8.076804,3.393162,0,0,1
-0.065823,-0.214849,1.225608,-1.017313,16.051785,116.150597,15.109528,15.995241,358.802338,-9.928898,3.02812,0,0,1
0.069675,-0.018804,0.741233,0.26513,-2.390963,100.807083,14.804643,15.331314,368.983856,-1.446838,-5.36822,0,0,1
0.022556,-0.040533,0.939964,-16.544029,-3.902413,80.791817,12.821653,14.61096,377.143829,-2.468445,-1.373348,0,0,1
0.061862,0.108393,0.893089,-12.803572,-3.276459,42.562809,11.435997,13.915765,381.442688,6.903688,-3.933649,0,0,1
0.116306,0.085688,1.184593,-5.322657,-11.994017,9.707847,10.762793,12.338423,382.423187,4.117577,-5.592922,0,0,1
0.059421,-0.391363,1.747581,-1.628,23.899113,12.455938,10.134083,14.419182,383.681244,-12.615803,-1.900375,0,0,1
-0.050442,0.021479,0.9822,4.539939,4.708274,8.181129,10.405787,14.655607,384.507538,1.251111,2.939227,0,0,1
0.029147,0.007075,0.903099,25.425436,6.250258,6.455939,12.723254,14.944175,385.159576,0.448602,-1.84852,0,0,1
0.028903,0.0935,0.746849,-0.589832,-2.848978,9.127694,12.55302,14.319319,386.081482,7.130641,-2.199112,0,0,1
0.016208,0.102778,0.830589,-7.628,2.433465,15.555175,11.687994,14.251609,387.652557,7.052646,-1.109461,0,0,1
-0.050198,0.053706,1.153099,-19.673801,12.387663,24.303267,9.560204,15.242508,390.107178,2.664104,2.490007,0,0,1
-0.034329,-0.126226,1.507102,-38.620369,20.219725,44.730751,5.450629,16.965014,394.624969,-4.786349,1.300319,0,0,1
0.031345,-0.080328,1.142845,19.196428,11.349495,18.837618,7.161298,17.717743,396.527557,-4.019056,-1.567189,0,0,1
0.047214,0.067622,0.730003,15.944519,-16.024549,20.028458,8.701887,15.703583,398.550446,5.281344,-3.684792,0,0,1
0.019626,0.038813,0.799339,-0.498229,-12.833711,1.112427,8.534116,14.091135,398.662811,2.779055,-1.404832,0,0,1
0.004489,0.087153,0.812034,-15.185251,-1.00165,-12.689099,6.982913,13.70387,397.381226,6.125816,-0.314943,0,0,1
0.045993,0.111567,1.05764,-22.620365,-4.681039,-24.566963,4.724612,12.916937,394.899963,6.016028,-2.476309,0,0,1
0.098728,-0.171148,1.606712,-44.253956,6.250258,-15.605131,0.128485,13.20732,393.323853,-6.068893,-3.496498,0,0,1
0.041354,-0.02271,1.027122,9.089558,20.693007,-24.918108,1.000287,14.945266,390.807129,-1.265622,-2.305063,0,0,1
0.027683,0.000483,0.787864,24.142992,-6.116154,-32.337952,3.370657,14.000737,387.540985,0.035097,-2.012332,0,0,1
0.024509,0.04687,0.758567,3.18116,6.067053,-14.902841,3.688792,14.2843,386.035797,3.533802,-1.847023,0,0,1
-0.002591,0.097895,0.824485,-9.826473,-8.009283,-3.559328,2.777817,13.20943,385.6763,6.771263,0.178787,0,0,1
-0.019681,0.084711,1.102806,-13.215786,12.67774,11.509374,1.501998,14.220471,386.838745,4.391822,1.019389,0,0,1
-0.010647,-0.033208,1.40554,-39.353191,15.670105,16.272734,-2.450289,15.495768,388.4823,-1.353429,0.433906,0,0,1
-0.023587,-0.036382,1.014427,5.837649,4.586137,15.845251,-1.864543,15.66641,390.082672,-2.053473,1.331116,0,0,1
0.045017,0.041499,0.69973,16.005589,-27.032185,12.562809,-0.175278,12.603945,391.351501,3.387053,-3.674572,0,0,1
0.039157,0.05102,0.769065,0.494137,2.983083,0.135328,-0.047051,12.588966,391.365173,3.790561,-2.908335,0,0,1
0.040866,0.064692,0.915062,-6.727237,0.631938,-18.857038,-0.631174,12.348722,389.460602,4.039885,-2.550745,0,0,1
0.090671,0.091792,1.135276,-9.826473,-2.207757,-35.376122,-1.499017,11.792192,385.887604,4.607922,-4.551548,0,0,1
0.051608,-0.105474,1.524925,-22.238688,13.31896,-24.429558,-3.74931,12.835985,383.420227,-3.954406,-1.933719,0,0,1
0.085056,-0.073736,1.150901,-4.040214,1.4869,-29.024977,-4.147341,12.642078,380.488708,-3.655868,-4.21806,0,0,1
0.002536,0.07812,0.74514,30.402534,-2.390963,-29.925741,-0.935453,12.148701,377.466217,5.984929,-0.193946,0,0,1
0.001071,0.025385,0.77053,9.242229,3.944915,-12.429558,0.035791,12.294602,376.210846,1.886935,-0.079617,0,0,1
-0.018948,0.118403,0.835228,-10.055481,-1.536001,-8.933374,-0.798886,11.922412,375.308563,8.066506,1.286747,0,0,1
-0.034329,0.121088,1.116233,-17.414259,5.257893,-6.62803,-2.382806,12.239415,374.63913,6.188302,1.751275,0,0,1
0.100192,-0.254644,1.634788,-43.551666,29.853313,17.982656,-6.822639,14.880199,376.455383,-8.837255,-3.465454,0,0,1
0.152683,-0.047369,1.097923,12.295665,10.326594,-1.986809,-5.5181,15.446527,376.25473,-2.446912,-7.909795,0,0,1
0.086276,0.038081,0.872581,17.56284,-6.02455,-12.597497,-3.619633,14.428458,374.982391,2.486766,-5.641426,0,0,1
0.076022,0.059565,0.80056,9.578107,2.234992,-39.956272,-2.514475,14.252913,370.946808,4.236215,-5.40977,0,0,1
0.01694,0.100092,0.789573,2.204061,2.860946,-56.948639,-2.101567,14.226645,365.195007,7.223066,-1.219347,0,0,1
0.04111,0.052973,1.029563,-18.666168,-11.734474,-75.5746,-3.848252,12.734962,357.561981,2.943047,-2.283582,0,0,1
0.07236,-0.002691,1.148948,-38.223423,-3.093253,-83.437195,-7.55732,12.102018,349.134827,-0.133925,-3.603698,0,0,1
0.131198,0.111567,0.763206,15.150626,-1.536001,-114.368492,-5.742602,11.514877,337.583618,8.198119,-9.653408,0,0,1
0.105075,-0.065435,1.106468,24.631542,-7.765008,-91.406662,-3.257107,10.407692,328.351532,-3.369332,-5.415394,0,0,1
0.185642,-0.035894,0.943382,0.310931,-17.093252,-89.925743,-3.203948,8.285153,319.269043,-2.137991,-11.124749,0,0,1
0.08237,-0.027105,0.936302,9.257497,6.051785,-93.345589,-2.256599,8.617946,309.841125,-1.651815,-5.025495,0,0,1
0.027194,0.036127,0.95803,6.326199,2.326595,-76.704369,-1.542125,8.643378,302.093994,2.158739,-1.624789,0,0,1
-0.042386,0.038325,1.19094,4.723145,-6.085619,-55.742535,-1.006946,7.908901,296.463989,1.841989,2.037251,0,0,1
0.072849,0.011225,0.951683,11.913985,-17.566534,-72.719635,0.205915,5.924448,289.119293,0.673801,-4.376991,0,0,1
0.158054,0.01269,0.987083,19.333832,4.479266,-103.024979,2.130006,6.06739,278.713776,0.727291,-9.096354,0,0,1
0.018405,-0.0044,0.941185,9.471237,-4.177222,-106.353226,3.019513,5.510176,267.972107,-0.267796,-1.120289,0,0,1
-0.044339,-0.007574,0.948265,0.26513,-4.696306,-101.834137,2.976223,4.988671,257.686859,-0.457109,2.676996,0,0,1
-0.022122,0.01562,0.938987,-0.253954,-17.154322,-97.605133,2.910617,3.217952,247.828735,0.952737,1.349424,0,0,1
0.030856,0.037104,0.986595,-2.910443,-28.070353,-91.54406,2.607383,0.339387,238.582779,2.152722,-1.790117,0,0,1
0.066745,0.015131,0.976341,20.219328,-24.604704,-88.612762,4.574262,-2.180981,229.632889,0.885833,-3.910331,0,0,1
0.090671,-0.159185,1.18264,8.539939,4.112854,-72.841774,5.175182,-1.817175,222.275864,-7.643857,-4.345157,0,0,1
0.145603,-0.004888,0.86721,-12.360824,-20.161955,-75.269257,3.841835,-3.967077,214.673676,-0.318497,-9.530786,0,0,1
0.093112,0.015375,0.938499,-4.696702,12.067053,-67.589867,3.318799,-2.806643,207.847092,0.934012,-5.66525,0,0,1
0.049411,0.102778,0.917015,-9.719603,-1.474932,-50.887569,2.418092,-2.957802,202.707443,6.385763,-3.065109,0,0,1
-0.010403,0.057124,1.078636,-10.650901,-1.261192,-29.925741,1.376131,-3.012442,199.684937,3.031358,0.551821,0,0,1
-0.045315,-0.002935,1.219749,-23.292122,6.754075,-3.650932,-0.959602,-2.241122,199.316193,-0.137774,2.127636,0,0,1
-0.029935,0.111079,0.851829,15.868183,-20.482565,5.09716,0.778722,-4.183749,199.831009,7.424923,1.99575,0,0,1
0.013034,-0.025884,0.99929,25.654444,-6.40623,13.936854,3.272751,-4.749104,201.238632,-1.483656,-0.747041,0,0,1
-0.009915,0.055415,0.769798,10.570474,2.631938,12.135327,4.335902,-4.378892,202.464294,4.117043,0.736028,0,0,1
0.008884,0.104243,0.842063,-9.704335,-10.161955,5.555176,3.429781,-5.309142,203.02536,7.0566,-0.599871,0,0,1
0.066257,0.135493,0.944358,-3.597466,4.143389,-3.986809,3.16801,-4.872303,202.622696,8.145091,-3.972785,0,0,1
0.083591,0.065668,1.188743,-16.559298,-15.032185,-7.421923,1.528693,-6.343067,201.873077,3.154143,-4.016237,0,0,1
0.090427,-0.00855,1.115989,36.066654,-1.291726,-27.07078,5.059246,-6.436707,199.138931,-0.437536,-4.632326,0,0,1
0.000095,-0.067632,1.037132,17.944519,10.983083,-8.399023,6.659589,-5.220972,198.290634,-3.731028,-0.005222,0,0,1
0.028415,0.059565,0.771751,4.555206,-2.192489,-0.475359,7.065481,-5.375613,198.24263,4.410451,-2.102369,0,0,1
0.034519,0.043696,0.825462,-1.811206,11.318961,8.898686,6.805448,-4.195574,199.141403,3.027481,-2.391213,0,0,1
0.014499,0.107172,0.9197,-16.757771,-3.474932,19.616243,5.143572,-4.473554,201.12265,6.645863,-0.89712,0,0,1
-0.014065,0.063227,1.34597,-12.498229,-4.864245,29.188763,3.857413,-4.853585,204.070709,2.689351,0.598062,0,0,1
-0.030911,-0.033453,1.232444,36.997952,8.158655,24.104794,7.411235,-3.920246,206.505295,-1.554328,1.436215,0,0,1
-0.007962,-0.120367,1.11428,33.288029,-2.574169,27.768915,10.434556,-4.088491,209.309952,-6.165138,0.407023,0,0,1
0.023532,0.059321,0.661155,9.959786,-8.940581,24.013191,11.314161,-4.932267,211.735291,5.12379,-2.030296,0,0,1
0.038181,0.028559,0.809105,-6.406626,2.815144,9.79945,10.494137,-4.60898,212.725037,2.019293,-2.700036,0,0,1
0.078464,0.12768,0.916526,-16.940977,-1.795543,-4.582229,8.765481,-4.791454,212.262238,7.902227,-4.846588,0,0,1
0.063327,0.060297,1.312767,-12.391358,-12.864245,-8.719634,7.41621,-6.024106,211.381561,2.626783,-2.758873,0,0,1
0.114108,-0.050787,1.190696,46.738411,-4.253558,-32.750168,11.84543,-6.434024,208.073792,-2.431224,-5.469186,0,0,1
-0.00137,-0.062994,1.044456,37.578106,16.647205,-16.139481,15.258974,-4.656103,206.44371,-3.451463,0.075024,0,0,1
0.037937,0.053461,0.695335,6.631542,7.242625,-7.315053,15.697986,-3.90838,205.704895,4.390082,-3.113712,0,0,1
0.017185,0.06225,0.764915,-12.116549,11.074686,4.517007,14.27776,-2.759695,206.161118,4.651436,-1.28275,0,0,1
0.008396,0.131586,0.953392,-25.185251,-4.146688,16.746016,11.656528,-3.124936,207.852463,7.857975,-0.499792,0,0,1
-0.012112,0.154292,1.236351,-19.582197,1.822778,20.410137,9.627415,-2.870879,209.913879,7.113165,0.556978,0,0,1
-0.041409,0.051997,0.978782,39.425434,6.265526,16.34907,13.397961,-2.144917,211.56514,3.038196,2.419152,0,0,1
0.069919,-0.037359,0.921897,31.242229,-24.665771,10.944489,16.176079,-4.630108,212.670532,-2.313941,-4.333605,0,0,1
0.018405,0.071528,0.691185,2.280397,-3.734474,2.517008,16.196396,-4.93749,212.924744,5.906193,-1.517247,0,0,1
0.011081,0.033198,0.838401,-9.215786,15.746441,-13.971542,15.005635,-3.29529,211.513611,2.267329,-0.756635,0,0,1
-0.001614,0.157465,0.971702,-16.253954,-0.131421,-20.628031,13.280803,-3.240513,209.430176,9.20481,0.093958,0,0,1
0.075778,0.096186,1.199974,-28.299755,-22.787909,-13.253985,10.305552,-5.503288,208.091522,4.573776,-3.601907,0,0,1
0.138278,0.0227,1.035179,41.486504,1.089954,-46.200546,14.230679,-5.437472,203.425262,1.245142,-7.606675,0,0,1
-0.024075,-0.080328,0.971458,31.776581,12.67774,-31.238718,16.996801,-4.045583,200.270157,-4.725459,1.414818,0,0,1
0.00156,0.027583,0.694603,1.394901,-1.963482,-18.414291,16.840414,-4.161588,198.410309,2.274003,-0.128543,0,0,1
-0.011624,0.044917,0.804466,-17.414259,5.151022,3.616244,14.84385,-3.551977,198.775543,3.195399,0.826543,0,0,1
-0.056058,0.137934,0.9468,-32.940979,-10.055085,25.41777,11.451965,-4.409128,201.342743,8.274507,3.353068,0,0,1
-0.067532,0.125239,1.237815,-24.971512,6.555602,46.532276,8.866623,-3.609932,206.042496,5.768849,3.106993,0,0,1
-0.061429,0.102534,0.842796,47.333832,-11.123787,17.112427,13.512759,-4.556001,207.770844,6.918284,4.13833,0,0,1
-0.055081,-0.149908,1.109397,28.402534,-1.994016,27.036091,15.900066,-4.605912,210.501495,-7.686147,2.816816,0,0,1
0.042331,0.060297,0.681175,-0.421893,-24.268826,14.410137,15.641285,-6.986767,211.956924,5.048928,-3.542211,0,0,1
0.021091,0.029536,0.85012,-5.948611,6.494534,-9.284519,14.77945,-6.232609,211.019196,1.98921,-1.420316,0,0,1
0.075778,0.146479,0.952659,-15.246321,-14.894779,-29.635664,13.149062,-7.672149,208.026001,8.71413,-4.495352,0,0,1
0.030856,0.081293,1.245872,-6.391359,-11.261191,-31.345587,12.328107,-8.661654,204.860092,3.73213,-1.415742,0,0,1
0.047946,0.025874,1.090354,48.036121,-19.215389,-53.742535,16.863321,-10.440702,199.432098,1.358032,-2.517145,0,0,1
0.062106,-0.137212,1.123313,26.433069,32.112854,-38.582226,19.003328,-7.116184,195.535294,-6.953647,-3.141282,0,0,1
-0.055813,0.024897,0.733177,2.417802,3.364763,-17.131847,18.901361,-6.553801,193.804977,1.939277,4.350778,0,0,1
-0.085843,0.04809,0.793724,-9.337923,10.082319,10.349069,17.668009,-5.301548,194.850235,3.44716,6.161447,0,0,1
-0.069974,0.098627,0.998558,-23.887541,-2.116153,36.440674,15.062802,-5.325192,198.530746,5.627093,3.989085,0,0,1
-0.061917,0.084711,1.227561,-18.574564,12.250259,54.730751,13.001888,-3.948545,204.058548,3.942606,2.880656,0,0,1
-0.065091,-0.018072,1.149925,35.975052,10.219725,49.249832,16.284683,-2.793239,209.032776,-0.898926,3.239338,0,0,1
-0.034817,-0.102056,1.09597,-6.452427,17.013617,54.868153,15.213981,-1.017132,214.574463,-5.317346,1.81176,0,0,1
0.010349,-0.029302,0.865501,3.639176,-27.169588,20.242199,15.23113,-3.699728,216.618927,-1.938917,-0.68465,0,0,1
0.03696,-0.00855,0.987571,-9.612733,9.853312,1.356702,13.965124,-2.693317,216.755951,-0.495702,-2.14322,0,0,1
-0.002591,0.158686,0.810325,5.211695,-4.864245,-29.315054,14.423274,-3.117318,213.795135,11.079964,0.179774,0,0,1
0.020114,0.027583,1.127464,-11.063114,-10.009283,-33.299786,13.067805,-4.066126,210.431854,1.401194,-1.021758,0,0,1
-0.020413,-0.20606,1.555686,0.723145,-2.02455,-51.284519,12.727135,-4.170289,205.252121,-7.544608,0.74526,0,0,1
0.043552,0.10644,0.817405,8.753679,8.876213,-46.246349,13.487206,-3.268803,200.581238,7.408738,-3.024378,0,0,1
-0.020413,-0.018072,0.973655,10.295665,11.944915,-24.108948,14.215266,-1.997103,198.14624,-1.063097,1.200847,0,0,1
0.01572,0.095698,0.904319,-16.635633,-27.887146,-13.818871,12.405163,-4.737237,196.750534,6.039822,-0.99034,0,0,1
0.004978,0.062495,0.905784,-10.284488,11.38003,-6.948641,11.218038,-3.522379,196.048721,3.946811,-0.314107,0,0,1
-0.119046,0.097895,1.00344,-3.429527,9.532701,16.196398,10.764894,-2.373702,197.684555,5.533545,6.734142,0,0,1
-0.114163,0.0935,1.195823,1.257496,3.181556,41.997925,10.763076,-1.90258,201.926346,4.450662,5.436903,0,0,1
-0.135403,-0.141607,1.363304,40.310928,43.517433,53.921589,14.419765,2.555664,207.372421,-5.901243,5.641859,0,0,1
-0.027981,-0.140386,1.132591,5.913985,9.196823,53.875786,14.575461,3.442943,212.813873,-7.06372,1.4045,0,0,1
0.043308,0.037348,0.797386,-11.13945,-16.665771,46.669682,13.234923,1.662398,217.527512,2.677732,-3.105397,0,0,1
0.022312,0.052241,0.879417,-3.948611,-0.100886,20.715481,12.647362,1.590149,219.619781,3.398502,-1.450772,0,0,1
0.01694,0.134272,0.928489,-8.162351,-6.787909,1.677313,11.751053,0.865789,219.789185,8.227341,-1.034496,0,0,1
0.018894,0.063959,1.155052,-9.811206,1.97545,-7.910473,10.608299,1.025289,218.990219,3.169019,-0.935689,0,0,1
0.120212,0.004389,1.249046,-36.742504,-16.116154,-19.177649,6.763369,-0.70034,217.053284,0.200411,-5.497352,0,0,1
0.154392,0.008295,1.021751,29.639175,-7.00165,-52.582226,9.570987,-1.551205,211.742477,0.459943,-8.592391,0,0,1
0.027683,-0.02271,0.899925,25.257496,5.990717,-50.139481,11.850657,-0.962447,206.678391,-1.444923,-1.761361,0,0,1
-0.053372,0.059565,0.766136,0.417802,-5.490199,-31.620398,11.743696,-1.407156,203.484726,4.43494,3.973063,0,0,1
-0.116116,0.106928,0.868431,-6.803573,-0.161955,-6.841771,10.974566,-1.243857,202.793701,6.958083,7.55932,0,0,1
-0.085843,0.13769,1.062522,-8.864641,-1.200123,24.715481,10.024853,-1.246151,205.289963,7.35997,4.580842,0,0,1
-0.035062,0.166987,1.110862,-19.750137,-10.986382,46.394871,8.040379,-2.272906,209.975845,8.544605,1.787722,0,0,1
-0.081937,0.081538,0.911399,52.265129,-0.986382,37.310902,13.154611,-2.222743,213.744247,5.091882,5.116861,0,0,1
-0.016995,-0.068853,1.132835,30.768948,6.525067,34.425407,15.867475,-1.515278,217.221207,-3.477734,0.85792,0,0,1
-0.011868,0.098627,0.82473,-1.292122,8.540335,24.944489,15.558606,-0.623278,219.740601,6.818781,0.818619,0,0,1
0.030856,0.079584,0.90261,-3.185252,8.723541,-3.788336,15.032874,0.213636,219.357971,5.035895,-1.950378,0,0,1
0.040134,0.157221,0.8843,-6.009679,-10.039818,-20.58223,14.338803,-0.835548,217.27916,10.071219,-2.558508,0,0,1
0.014255,0.032709,1.20388,-13.078382,5.761709,-23.345589,12.788654,-0.262106,214.921249,1.556237,-0.678145,0,0,1
0.007663,-0.031255,1.260765,20.494137,-4.497833,-30.857038,14.53299,-0.709022,211.804688,-1.420092,-0.34814,0,0,1
0.109714,-0.02564,1.075706,5.77658,17.80751,-29.666199,14.78693,0.951307,208.808395,-1.358379,-5.821956,0,0,1
0.053806,0.098627,0.744651,7.944519,-6.345161,-23.07078,15.428048,0.222294,206.478241,7.525394,-4.097135,0,0,1
0.025974,0.076411,0.877464,3.440702,9.425831,-14.047878,15.559541,1.117035,205.059402,4.974665,-1.689117,0,0,1
-0.058255,0.104731,0.866478,-6.773038,-5.306993,4.318534,14.715485,0.64578,205.495575,6.876522,3.818603,0,0,1
-0.10806,0.117426,1.186058,-2.81884,-11.062718,36.959759,14.254787,-0.358513,209.228516,5.631002,5.180554,0,0,1
-0.153958,-0.170416,1.551048,35.761311,30.967815,35.906322,17.384554,2.826551,212.855057,-6.239589,5.634958,0,0,1
0.00571,-0.082769,1.119163,7.88345,18.67774,51.967392,17.732574,4.612913,218.10376,-4.229623,-0.291524,0,0,1
-0.024075,0.009516,0.814476,9.272763,-18.574169,61.020824,18.309122,2.716044,224.266861,0.669106,1.693005,0,0,1
-0.026761,0.057368,0.883079,5.684977,-2.329894,58.898689,18.579943,2.465752,230.215622,3.715196,1.732106,0,0,1
-0.043606,0.076655,0.928489,8.066657,11.044151,53.036095,19.101068,3.563183,235.572266,4.714384,2.679813,0,0,1
-0.033108,0.003657,1.159202,-16.879908,11.303694,64.608612,17.051888,4.643479,242.097733,0.180667,1.635993,0,0,1
-0.001858,-0.100835,1.075706,19.593374,17.86858,65.616241,18.5431,6.321213,248.724976,-5.355184,0.098553,0,0,1
-0.06094,-0.039068,0.959251,-6.33029,-26.894779,86.333801,17.499115,3.605384,257.444702,-2.327537,3.632066,0,0,1
-0.011624,-0.110601,0.931907,10.204062,16.99835,99.631508,18.023775,5.229967,267.507477,-6.767825,0.709654,0,0,1
-0.097562,-0.126958,0.99221,0.601008,16.570869,122.028458,17.577646,6.876963,279.832336,-7.257053,5.570571,0,0,1
-0.035794,-0.156988,1.037376,-4.253954,23.074686,139.371964,16.63303,9.062435,293.908905,-8.600327,1.953938,0,0,1
-0.048001,-0.12647,1.033958,-17.383724,15.31896,137.906311,14.440405,10.450226,307.837433,-6.966156,2.638384,0,0,1
-0.016263,-0.070318,1.01638,-20.376091,-7.398596,116.623878,12.055627,9.527199,319.616455,-3.957177,0.914503,0,0,1
-0.034329,0.00268,0.892845,-10.971511,4.723541,95.310898,10.731991,9.848228,329.242859,0.171865,2.201878,0,0,1
-0.036038,0.001948,0.983909,-11.73487,1.303694,85.234566,9.358101,9.822256,337.851562,0.113347,2.097656,0,0,1
-0.082425,0.015375,1.002952,-10.834106,-4.787909,83.280365,8.116086,9.245855,346.262878,0.875338,4.697586,0,0,1
0.031345,0.006831,1.069358,-3.475328,-19.276459,61.829987,7.617093,7.119376,352.507721,0.365817,-1.678923,0,0,1
0.051608,-0.081304,1.187522,-0.33029,21.80751,50.379604,7.353799,9.085843,357.596069,-3.912984,-2.48264,0,0,1
0.080173,0.100092,0.856956,5.486504,-13.932947,24.150595,7.882442,7.418865,360.035278,6.633244,-5.30889,0,0,1
0.017185,0.038813,0.849876,11.471237,-6.253558,43.173496,8.912502,6.628367,364.395813,2.61429,-1.157162,0,0,1
0.007907,0.032709,0.904075,-4.574565,-6.421497,45.906322,8.322902,5.850185,369.032349,2.07198,-0.50078,0,0,1
-0.060452,0.069086,0.951194,-3.368458,-6.681039,48.089527,7.905951,5.144431,373.889404,4.145834,3.626953,0,0,1
0.016208,0.00976,1.140403,12.570474,11.990717,47.204033,9.001864,6.212099,378.657013,0.49031,-0.814233,0,0,1
0.006931,-0.028082,1.126731,-30.635633,10.754075,62.83762,5.760959,7.145249,385.003601,-1.427661,-0.35232,0,0,1
0.018161,0.021235,0.897483,3.013222,2.158656,46.45594,5.971091,7.19283,389.695648,1.355114,-1.158933,0,0,1
0.02988,-0.005132,0.848655,11.898718,-16.100885,38.058994,7.02248,5.414979,393.539612,-0.346283,-2.016429,0,0,1
0.036472,0.083002,0.79055,-5.383725,1.914381,24.058992,6.468896,5.443625,395.969574,5.987392,-2.627024,0,0,1
-0.028714,0.053706,0.883567,-4.650901,-4.146688,5.47884,5.948702,4.961471,396.522949,3.476479,1.857897,0,0,1
0.030124,0.122065,0.981956,-11.963878,-18.146688,-6.597496,4.787197,3.031208,395.856598,7.082673,-1.743732,0,0,1
0.032321,0.060297,1.210472,2.219328,-6.009283,-13.941008,4.968136,2.345232,394.448547,2.85071,-1.527621,0,0,1
0.091403,-0.071783,1.2593,40.952152,14.112854,-43.711998,8.85714,3.612324,390.03363,-3.253907,-4.144695,0,0,1
-0.006253,-0.112554,1.139915,34.952152,27.86858,-33.727264,12.026783,6.304765,386.627167,-5.638972,0.312768,0,0,1
0.0228,0.043208,0.712425,-0.269221,-24.253559,-15.849405,11.828979,3.741459,385.026367,3.468882,-1.829658,0,0,1
0.022067,0.057612,0.802513,-4.681435,-5.551268,-7.666198,11.211123,3.085744,384.252075,4.104633,-1.571073,0,0,1
-0.027249,0.121088,0.917991,-9.154717,4.173923,0.761282,10.230987,3.470877,384.328979,7.510996,1.685637,0,0,1
-0.031888,0.114252,1.143821,-12.559298,11.151022,7.47884,8.897287,4.536968,385.084351,5.701961,1.588987,0,0,1
-0.102444,-0.206304,1.527366,37.852913,38.372395,12.303267,12.312514,8.320384,386.326965,-7.675452,3.802796,0,0,1
-0.035306,-0.101812,1.196067,25.73078,12.265526,25.41777,14.515831,9.401711,388.894165,-4.863312,1.684684,0,0,1
0.042087,0.008784,0.813743,10.891085,-20.207756,15.036091,15.315866,7.154303,390.412811,0.617612,-2.960536,0,0,1
0.069919,-0.003423,0.607444,-0.315023,-0.253558,-0.30742,14.971953,6.854802,390.381775,-0.320777,-6.565943,0,0,1
0.086032,0.118647,0.837181,-17.154716,-12.40623,-11.727267,13.135034,5.373543,389.197327,8.024652,-5.80971,0,0,1
0.06528,0.056147,1.200462,-16.513496,-10.421497,-21.284519,11.291306,4.172367,387.047577,2.673893,-3.109246,0,0,1
0.181003,-0.181402,1.534935,-20.803572,5.654839,-29.712,8.872459,4.515049,384.046661,-6.694118,-6.679329,0,0,1
0.116306,-0.085699,1.095726,14.784214,16.967815,-36.90284,10.069407,5.98341,380.319489,-4.447224,-6.040657,0,0,1
0.07236,0.038813,0.750999,12.127726,-5.963482,-31.482992,11.127319,5.16355,377.139709,2.944903,-5.49629,0,0,1
0.007419,0.061274,0.802269,3.883451,12.631937,-17.223452,11.376504,6.300023,375.400146,4.367348,-0.528287,0,0,1
0.000095,0.133784,0.819114,-5.872275,-5.337527,-2.185283,10.753258,5.645583,375.179443,9.27606,-0.006539,0,0,1
0.019138,0.07934,1.18386,-10.666167,14.586136,18.913954,9.559128,6.957926,377.089752,3.833634,-0.924062,0,0,1
0.061862,-0.254156,1.657249,-31.658533,40.341862,24.517008,6.060124,10.769545,379.565979,-8.712977,-2.11308,0,0,1
0.01694,-0.054693,1.07302,12.631542,15.532701,20.196396,7.130841,12.073514,381.605804,-2.917532,-0.903316,0,0,1
0.055271,0.021967,0.795188,6.26513,-13.551269,15.814717,7.639919,10.41125,383.203094,1.578601,-3.974504,0,0,1
0.04819,0.038081,0.767845,2.249863,18.922014,-6.857038,7.766486,12.004189,382.510529,2.83364,-3.586813,0,0,1
-0.031155,0.111567,0.861595,-5.215786,-6.558902,-13.482993,7.242364,11.155982,381.148743,7.373344,2.053782,0,0,1
-0.040677,0.035883,1.226341,-2.605099,-15.383329,-14.628031,6.873167,9.448199,379.671326,1.675102,1.898947,0,0,1
0.046726,-0.067876,1.387229,-39.689072,1.990717,-2.399023,2.751286,9.41774,379.429016,-2.799636,-1.926842,0,0,1
0.0853,0.077631,0.974144,9.059023,12.463999,-17.971542,3.683704,10.363301,377.613892,4.539084,-4.988542,0,0,1
0.001315,0.044917,0.800804,20.47887,-5.047451,-4.90284,5.701235,9.654559,377.118713,3.210311,-0.093968,0,0,1
-0.077298,0.062983,0.828392,3.425435,9.425831,20.975023,6.012842,10.50075,379.237183,4.32912,5.315623,0,0,1
-0.062161,0.083735,0.86428,-5.780672,-17.627604,40.532276,5.430807,8.627848,383.330933,5.519599,4.094661,0,0,1
-0.035306,0.086665,1.097923,-0.177618,-0.528367,70.639145,5.394829,8.439715,390.465485,4.510962,1.836106,0,0,1
0.023288,-0.177984,1.490989,-57.887543,17.86858,96.089523,-0.578908,10.021783,400.170532,-6.806535,-0.888535,0,0,1
-0.033841,-0.032964,1.006126,1.394901,16.479267,83.158226,-0.466772,11.490973,408.569519,-1.875488,1.925372,0,0,1
0.000339,0.04809,0.760276,2.188794,-21.047451,75.524635,-0.168403,9.177367,416.19751,3.619351,-0.025487,0,0,1
0.029636,-0.001958,0.842796,-1.643267,14.799877,64.639145,-0.330346,10.418434,422.726074,-0.133062,-2.013891,0,0,1
0.025729,0.038813,0.880394,-10.956244,-4.177222,46.181129,-1.357724,9.763157,427.390381,2.523229,-1.672369,0,0,1
0.090915,0.098139,1.07595,-13.337923,-0.681039,16.562809,-2.546893,9.404284,429.063232,5.193216,-4.810001,0,0,1
0.108249,0.029292,1.218284,-27.887541,-6.055085,5.112428,-5.228826,8.515344,429.57959,1.371908,-5.076147,0,0,1
0.04697,0.10644,0.897239,26.005589,35.731174,3.494107,-2.415091,11.822193,429.932495,6.756243,-2.975822,0,0,1
-0.020657,-0.0044,0.927024,12.921618,-15.994017,16.043726,-1.093245,10.028193,431.552917,-0.271871,1.276517,0,0,1
0.04697,0.055659,0.824485,2.830015,-3.70394,23.09716,-0.71415,9.39595,433.885742,3.855785,-3.253145,0,0,1
0.025485,0.083979,0.83303,-5.628,-0.635237,28.715481,-1.141848,9.110285,436.786011,5.753949,-1.743503,0,0,1
0.058444,0.057612,1.120872,-16.376091,9.563235,32.257465,-2.681149,9.815032,440.044006,2.938378,-2.980877,0,0,1
0.023532,0.067866,1.233421,-24.452427,24.693007,26.654411,-4.984851,12.041018,442.736115,3.148801,-1.091353,0,0,1
0.006198,0.08227,0.850853,17.394901,-1.734474,29.494106,-3.052953,11.620212,445.715027,5.522688,-0.41544,0,0,1
0.058933,-0.002203,0.844261,20.036123,-20.390963,25.921587,-1.011701,9.28965,448.333099,-0.149119,-3.992973,0,0,1
0.066989,0.044917,0.784935,1.18116,-1.154321,5.127695,-0.809291,8.8922,448.850983,3.263242,-4.870088,0,0,1
0.060642,0.074702,0.784446,-0.910443,9.257893,-16.246351,-0.774747,9.54269,447.210114,5.423703,-4.400628,0,0,1
0.083347,0.077631,1.021263,-15.307389,0.418198,-34.292152,-2.187725,9.300185,443.746613,4.332633,-4.652287,0,0,1
0.040622,0.081782,1.160667,-27.658533,-3.902413,-30.52116,-4.801053,8.68793,440.663971,4.027998,-1.999518,0,0,1
0.107761,0.061274,0.883567,41.639175,-4.787909,-51.498257,-0.504828,7.901524,435.462646,3.937929,-6.937011,0,0,1
0.072604,-0.12647,1.077415,17.440702,-6.772642,-42.628029,1.097951,6.996558,431.157227,-6.679901,-3.828991,0,0,1
0.043063,0.047358,0.822044,-2.269221,-6.848978,-26.490627,0.917238,6.118839,428.481659,3.292658,-2.993793,0,0,1
-0.007474,0.026362,0.870628,-3.902809,-7.169589,-9.116581,0.547279,5.296649,427.560883,1.73427,0.4916,0,0,1
-0.048489,0.061274,0.976829,-4.131817,2.937282,18.837618,0.199064,5.538173,429.46347,3.584908,2.836233,0,0,1
-0.06094,0.086909,1.062034,-1.322656,-27.429131,39.326168,0.157577,2.777938,433.435425,4.670573,3.273163,0,0,1
-0.005032,-0.003179,0.964134,23.165894,-33.551266,36.425407,2.443608,-0.592545,437.11438,-0.188928,0.299047,0,0,1
-0.024075,-0.077886,1.050804,30.188795,1.059419,35.555176,5.298064,-0.449655,440.705444,-4.23794,1.308897,0,0,1
-0.048245,0.032221,0.794456,5.150626,-1.184856,42.746017,5.748276,-0.488493,445.022797,2.318237,3.472299,0,0,1
-0.031155,-0.022466,0.875511,-3.979145,-4.864245,41.677315,5.210075,-0.919439,449.232208,-1.469004,2.037355,0,0,1
0.014255,0.09936,0.890647,-5.414259,-10.360428,33.356705,4.697265,-1.944751,452.601227,6.364739,-0.911293,0,0,1
0.028903,0.025874,1.247337,-1.307389,9.670106,28.410137,4.497674,-0.975252,455.470642,1.187998,-1.327136,0,0,1
0.04404,-0.282232,1.579856,1.975054,12.708273,31.555176,4.400715,0.27068,458.657715,-10.124851,-1.57189,0,0,1
-0.238919,-0.094,1.131126,53.074287,28.937283,59.753651,9.473026,3.367219,464.692841,-4.648415,11.88703,0,0,1
-0.11221,-0.087896,0.923362,32.84528,10.799877,93.723114,12.426629,4.506805,474.158875,-5.398194,6.897913,0,0,1
-0.059476,-0.081548,0.76223,23.654444,5.364762,112.837616,14.39765,5.036402,485.555481,-6.088285,4.436445,0,0,1
-0.043851,-0.06397,0.876487,8.26513,31.670105,128.318542,14.844397,8.127512,498.515656,-4.169121,2.85653,0,0,1
-0.00137,-0.062261,0.983665,-16.574564,28.693008,141.173492,12.834525,10.806589,512.77417,-3.62171,0.079646,0,0,1
-0.003323,-0.081792,0.99514,11.425435,13.532701,141.692581,13.614751,11.933739,527.085144,-4.698665,0.190694,0,0,1
-0.137845,-0.054693,0.93679,2.921618,-19.245924,155.524643,13.56552,9.957237,542.793152,-3.305806,8.356735,0,0,1
-0.024075,-0.140386,1.091331,22.249863,27.654839,136.929214,15.349935,12.520436,556.622986,-7.328374,1.253438,0,0,1
-0.118802,-0.117925,0.89846,-3.13945,15.395296,131.356705,14.58392,13.943236,569.890015,-7.413679,7.469093,0,0,1
-0.061917,-0.131597,0.913108,-13.490595,11.425831,125.494102,12.793294,14.872094,582.564941,-8.182463,3.839682,0,0,1
0.118747,-0.030035,0.980247,-19.857008,2.647206,90.990288,10.537136,14.698594,591.754944,-1.742258,-6.903943,0,0,1
0.124362,0.056879,0.98098,-6.696702,-6.818443,44.77655,9.729397,13.585472,596.277405,3.292132,-7.213064,0,0,1
0.133396,-0.032964,1.150657,17.868183,13.654839,18.852884,11.270801,14.533118,598.181519,-1.630066,-6.610084,0,0,1
0.027194,0.047358,0.928733,2.830015,5.578503,10.104794,11.383857,14.761116,599.202087,2.917846,-1.675029,0,0,1
0.074802,0.056391,0.875755,3.684977,-36.055084,9.020824,11.594337,10.799722,600.11322,3.670942,-4.871974,0,0,1
0.030124,0.038813,0.978294,-0.92571,-7.047451,26.226931,11.316242,9.850924,602.762146,2.270895,-1.762332,0,0,1
-0.007962,0.147456,0.898216,-10.834106,-10.146688,28.944489,10.204006,8.659609,605.685547,9.322443,0.501157,0,0,1
0.076022,0.05395,1.147483,-0.727237,28.891479,23.73838,9.981663,11.27037,608.08313,2.685938,-3.78622,0,0,1
-0.003079,-0.038824,1.202171,-27.383724,28.372395,36.272736,7.034595,13.856196,611.746704,-1.8497,0.146674,0,0,1
0.02988,0.05102,0.762962,26.509405,-13.719207,15.433038,9.59426,12.176391,613.30542,3.822808,-2.237736,0,0,1
0.013034,-0.02564,0.884788,16.204062,-14.696306,15.982656,10.973059,10.461349,614.919678,-1.659721,-0.843633,0,0,1
-0.013577,0.039057,0.805442,-3.002046,-5.32226,2.77655,10.511971,9.744617,615.200134,2.775791,0.964596,0,0,1
-0.044095,0.045405,0.877464,-1.047847,-8.02455,-9.284519,10.257185,8.812916,614.26239,2.958429,2.872997,0,0,1
0.025729,0.11645,0.96804,-1.84174,-16.803177,-14.368489,10.006886,6.943246,612.811157,6.856997,-1.511611,0,0,1
-0.031644,0.047358,1.169456,-1.658534,-22.146688,-2.963909,9.688949,4.643276,612.51178,2.318117,1.548683,0,0,1
0.083591,-0.055181,1.18264,45.593372,1.334228,-24.826504,13.954705,4.601699,610.004272,-2.664806,-4.038652,0,0,1
-0.014065,-0.137945,1.213157,26.982687,28.005983,-15.00971,16.216625,7.294898,608.488281,-6.486654,0.660009,0,0,1
-0.052884,0.073237,0.688499,6.219328,-5.780275,4.532275,16.628965,6.664223,608.946045,6.054118,4.367734,0,0,1
0.010837,0.030268,0.807884,-5.963878,-4.161955,19.142962,15.74899,6.10363,610.879456,2.14544,-0.767978,0,0,1
0.005954,0.082758,0.900169,-20.147083,-13.261191,28.562809,13.544906,4.661417,613.764282,5.252688,-0.377382,0,0,1
0.050876,0.02685,1.309349,-16.315023,12.112854,32.746017,11.682624,5.722624,617.071655,1.173883,-2.224695,0,0,1
0.023288,-0.26441,1.566917,11.532306,70.036522,39.371971,12.398898,12.523595,621.048218,-9.577116,-0.83962,0,0,1
0.035495,-0.18897,1.178245,19.486504,6.067053,20.288,13.897543,12.839564,623.09729,-9.107597,-1.703776,0,0,1
0.170993,0.074458,0.676292,7.165893,-31.917681,6.333802,14.450723,9.141413,623.737,6.092558,-14.107438,0,0,1
0.054538,0.038325,0.802513,-8.391358,8.097587,-17.116581,13.385689,9.682416,622.00824,2.727851,-3.883383,0,0,1
0.00156,0.099604,0.884788,-15.261587,-0.238291,-29.482992,11.735843,9.463175,619.030457,6.422956,-0.100358,0,0,1
0.038181,0.030268,1.158958,-25.628,-5.383329,-43.498257,8.99437,8.703345,614.637146,1.495221,-1.886225,0,0,1
0.078708,-0.104742,1.374046,-43.841743,-7.765008,-41.345585,4.387986,7.695318,610.461243,-4.352045,-3.268967,0,0,1
0.195896,0.014399,0.948753,2.539939,11.257893,-58.108944,4.56866,8.422417,604.592224,0.851534,-11.665,0,0,1
0.093845,-0.019048,0.802513,30.387268,1.27316,-57.238716,7.458009,8.246626,598.811096,-1.350511,-6.667936,0,0,1
0.073581,0.021479,0.852317,-4.956244,0.265526,-46.108944,6.847044,8.009323,594.154114,1.438241,-4.932586,0,0,1
-0.005765,0.031,0.863548,-12.131817,-6.02455,-30.795969,5.550415,7.260471,591.043701,2.055931,0.382228,0,0,1
-0.020901,0.067622,1.059837,-18.315023,6.647205,-8.460092,3.699586,7.795753,590.189209,3.65003,1.127509,0,0,1
0.005954,-0.11646,1.415794,-47.826473,15.31896,21.891052,-1.202318,9.151306,592.400208,-4.702411,-0.240144,0,0,1
0.06821,0.1206,0.784935,14.112458,-21.077986,-14.292153,0.392629,6.783799,590.956726,8.702528,-4.909146,0,0,1
0.097019,0.001215,0.856712,27.593374,-20.207756,-18.780703,3.117584,4.518741,589.059875,0.080764,-6.460942,0,0,1
0.045749,0.035639,0.788841,-4.391359,-11.047451,-25.574596,2.672225,3.268574,586.476868,2.582482,-3.31579,0,0,1
0.022556,0.056635,0.892845,-7.047847,1.212091,-41.498257,1.993753,3.294291,582.285522,3.62839,-1.444237,0,0,1
0.03696,0.110102,1.010032,-20.024946,-3.291726,-41.788334,0.096149,2.860923,578.06488,6.217031,-2.08335,0,0,1
0.054782,-0.034917,1.355491,-40.849377,-1.658138,-28.6891,-3.978534,2.593311,575.167297,-1.474411,-2.313585,0,0,1
0.141208,0.03393,0.983665,13.226962,2.723541,-43.376122,-2.550648,2.647733,570.786316,1.955525,-8.164378,0,0,1
0.076999,-0.048345,0.854759,30.020855,15.273159,-49.177647,0.407346,4.00373,565.819397,-3.224176,-5.139298,0,0,1
-0.001614,0.046625,0.729515,-3.994412,2.555602,-26.307421,0.076971,4.179139,563.162354,3.656964,0.126525,0,0,1
-0.019437,0.021479,0.802757,-10.360824,-9.169588,-7.00971,-0.919438,3.21568,562.454346,1.532223,1.386491,0,0,1
0.013278,0.095209,0.971946,-25.353191,-0.681039,11.921587,-3.298625,3.068378,563.658447,5.594186,-0.778974,0,0,1
0.028903,-0.043462,1.431663,-61.719604,10.845678,22.547541,-9.37643,4.057395,565.93573,-1.738496,-1.156034,0,0,1
-0.064358,0.15185,0.82595,39.226959,-16.177221,1.936855,-5.098483,2.462673,566.131348,10.386643,4.382355,0,0,1
-0.026028,-0.079107,0.964866,37.455967,-13.932947,21.265099,-1.382829,1.065138,568.279114,-4.685355,1.540076,0,0,1
0.015231,0.01562,0.707054,8.310931,-9.459665,10.60861,-0.507251,0.082842,569.350586,1.26523,-1.233782,0,0,1
-0.003567,0.024165,0.776146,-14.849374,-3.337528,-1.727267,-1.931232,-0.243899,569.176147,1.783255,0.263218,0,0,1
0.025729,0.121577,0.934593,-19.063114,-5.627604,-9.971542,-3.631296,-0.827317,568.169006,7.408934,-1.563795,0,0,1
0.056735,0.076411,1.282005,-24.925709,-22.894779,-6.276886,-5.957665,-3.127486,567.535034,3.407607,-2.529499,0,0,1
0.182224,-0.063726,1.110618,47.50177,5.654839,-30.002077,-1.201601,-2.691275,564.504822,-3.240733,-9.302698,0,0,1
0.009372,-0.093023,0.950706,39.578106,12.5098,-26.276886,2.628109,-1.410472,561.85083,-5.588114,-0.56212,0,0,1
-0.002835,0.063715,0.636009,7.77658,6.112854,-12.963909,3.459688,-0.772129,560.541504,5.720745,0.254118,0,0,1
-0.012845,0.024897,0.819114,-18.803572,-3.429131,6.959756,1.564131,-1.078143,561.244446,1.740755,0.897981,0,0,1
-0.041165,0.109614,0.982933,-34.360825,-8.589436,23.814716,-1.741034,-1.859095,563.649719,6.35764,2.383379,0,0,1
0.010837,0.037104,1.316185,-24.223419,0.067053,14.929221,-4.071553,-1.824707,565.157593,1.614719,-0.471552,0,0,1
-0.073147,0.083735,0.911888,54.84528,9.135755,9.158229,1.54306,-0.792615,566.082581,5.229815,4.567053,0,0,1
-0.024808,-0.152349,1.114524,26.326199,-20.726841,25.173496,3.96233,-2.803038,568.625122,-7.781861,1.263362,0,0,1
0.024265,-0.000738,0.676048,9.349099,-8.177222,19.494106,4.807207,-3.59747,570.594055,-0.062488,-2.055571,0,0,1
0.013522,0.027827,0.826683,-4.986779,-2.558902,1.707847,4.256024,-3.797533,570.766541,1.927627,-0.936602,0,0,1
0.046481,0.123774,0.978538,-9.719603,-4.238291,-10.276886,3.352876,-4.19505,569.728577,7.200946,-2.698091,0,0,1
0.045505,0.103999,1.224388,-10.131817,-12.818443,-8.063146,2.380005,-5.422335,568.914185,4.851672,-2.120813,0,0,1
0.128757,-0.044927,1.108177,42.52467,1.395297,-33.48299,6.495375,-5.308221,565.53241,-2.306094,-6.621975,0,0,1
0.024021,-0.139166,1.1072,24.036123,12.067053,-24.353222,8.601316,-4.032322,563.072754,-7.162349,-1.233127,0,0,1
-0.002835,0.073481,0.715599,7.730779,5.532701,-11.956275,9.311739,-3.399533,561.865173,5.8628,0.225798,0,0,1
-0.0043,0.049067,0.804222,-6.086015,1.746442,1.081893,8.592937,-3.152565,561.974426,3.491333,0.305763,0,0,1
-0.04263,0.107172,0.977073,-18.711969,-2.329894,19.891052,6.694041,-3.270459,563.983398,6.253684,2.483365,0,0,1
-0.060696,0.048823,1.267112,-25.704336,-7.536001,23.753649,4.060026,-3.896155,566.382507,2.204032,2.740414,0,0,1
-0.079739,0.00976,1.024925,49.18116,20.143389,24.043724,8.857656,-1.73547,568.810913,0.543962,4.448456,0,0,1
0.082614,-0.070074,0.999534,34.936886,-14.78791,16.578077,12.058623,-3.258736,570.485291,-3.996655,-4.713398,0,0,1
0.076511,0.042719,0.754417,6.387267,-0.604703,2.135328,12.514152,-3.36905,570.700989,3.224436,-5.781769,0,0,1
0.009616,0.035883,0.839134,0.036122,2.18919,-25.620398,12.316415,-3.098103,568.113342,2.448448,-0.655964,0,0,1
-0.000149,0.146967,0.93679,-14.284488,-12.894779,-34.353218,10.83453,-4.312285,564.643677,8.91611,0.009028,0,0,1
-0.093411,0.010981,1.345481,-8.513495,-1.536001,-21.07078,9.784503,-4.298647,562.515503,0.466478,3.971302,0,0,1
0.00986,-0.136968,1.38552,11.349099,1.441098,-28.811237,10.599235,-4.07815,559.605591,-5.645597,-0.405773,0,0,1
0.054294,-0.16065,1.197044,15.471237,21.853312,-27.147116,11.765873,-1.885025,556.863708,-7.63598,-2.573922,0,0,1
0.057468,0.021723,0.766136,4.753679,-5.169589,-23.299788,12.033466,-2.44477,554.510437,1.619592,-4.288001,0,0,1
0.054294,0.018305,0.865013,1.196428,0.021251,-21.620398,11.935418,-2.465586,552.326782,1.209917,-3.59075,0,0,1
0.006931,0.05517,0.97219,-1.643267,-1.184856,-15.849405,11.599016,-2.541708,550.726013,3.247887,-0.407794,0,0,1
0.033786,0.011469,1.106956,-10.391358,-11.59707,-14.322687,10.350366,-3.673714,549.279419,0.593347,-1.748126,0,0,1
-0.071927,-0.194097,1.371116,22.173527,41.624306,-9.589863,12.177167,0.579201,548.310852,-8.046416,2.97331,0,0,1
0.068942,-0.111578,1.160423,-5.918077,37.792244,-16.460093,11.238199,4.240604,546.648376,-5.482644,-3.384455,0,0,1
0.074313,0.028559,0.929222,6.066657,-10.146688,-48.490623,11.649009,3.060067,541.750793,1.754799,-4.570286,0,0,1
0.110446,0.035395,0.872337,17.746046,1.715908,-85.910477,13.218637,3.024507,533.073853,2.305116,-7.209937,0,0,1
0.072604,-0.035894,0.896751,5.623908,-3.047451,-116.490631,13.465225,2.569878,521.308289,-2.284673,-4.625108,0,0,1
0.018894,-0.158697,1.046653,6.814748,-10.360428,-148.566971,13.698038,1.472556,506.303009,-8.620309,-1.022473,0,0,1
0.042819,-0.21021,1.190208,8.326199,4.341862,-162.734909,14.048011,1.832282,489.866791,-10.009747,-2.029028,0,0,1
0.060153,-0.051763,0.958274,4.631542,2.616671,-138.093689,14.163763,1.982901,475.919342,-3.085884,-3.586674,0,0,1
0.123386,-0.068365,0.960228,-12.376091,-35.459663,-115.208183,12.574718,-1.712633,464.283325,-4.039282,-7.303888,0,0,1
0.143894,-0.124273,1.023216,0.524672,-11.352795,-132.108948,12.237994,-2.961025,450.940308,-6.858017,-7.947294,0,0,1
0.060886,-0.04981,0.999046,8.05139,-10.986382,-134.276886,12.73318,-4.058901,437.378326,-2.848991,-3.483198,0,0,1
-0.002347,-0.089361,1.005638,6.341465,-9.749742,-118.872307,13.004635,-4.940089,425.372223,-5.077945,0.133176,0,0,1
-0.037259,-0.125982,1.149681,-17.658533,8.173923,-75.25399,10.871696,-3.995329,417.771576,-6.250262,1.845152,0,0,1
-0.079007,-0.040533,1.048362,7.226962,-17.108521,-67.757805,11.325431,-5.522693,410.92804,-2.207863,4.306581,0,0,1
-0.046292,-0.01856,1.03469,-24.070747,-15.444398,-42.628029,8.695867,-6.889699,406.62262,-1.026623,2.561291,0,0,1
0.052829,0.031977,0.876976,-18.635633,10.448731,-48.292152,6.719084,-5.786592,401.745117,2.084468,-3.445054,0,0,1
-0.003567,0.052729,0.937767,-7.353191,15.288427,-52.643295,5.921247,-4.153259,396.428131,3.218231,0.217616,0,0,1
-0.028226,0.066401,1.014427,-5.551664,-4.711573,-45.040241,5.328191,-4.504737,391.879059,3.743597,1.590395,0,0,1
-0.059231,0.010004,1.182151,12.86055,1.822778,-30.643299,6.50425,-4.176858,388.784088,0.484268,2.868292,0,0,1
0.009128,-0.235357,1.407249,35.654442,19.273159,-29.131847,9.713353,-2.192995,385.841766,-9.494426,-0.366545,0,0,1
0.055271,-0.042486,1.010765,9.898718,8.219725,-26.704367,10.450795,-1.39809,383.144623,-2.403332,-3.127168,0,0,1
0.00571,-0.004644,0.76638,16.997955,8.219725,-6.765435,11.917294,-0.565077,382.461304,-0.347182,-0.42687,0,0,1
0.035251,0.003168,0.838646,-3.612733,-4.833711,-3.49826,11.325686,-1.080354,382.107971,0.216275,-2.406892,0,0,1
-0.047513,0.081293,0.865989,-13.963878,-4.116153,14.211663,9.824124,-1.40363,383.543335,5.354834,3.126678,0,0,1
-0.01553,0.065668,1.178489,-22.315023,-0.436764,32.562809,7.482683,-1.403712,386.832184,3.189094,0.753838,0,0,1
0.038181,-0.187261,1.454368,-32.253956,44.464001,45.341438,3.993845,2.995579,391.411682,-7.334411,-1.4915,0,0,1
0.048923,-0.069097,1.039573,6.906351,-21.505466,17.081892,4.521589,0.753287,393.136963,-3.798486,-2.688458,0,0,1
0.07114,0.07812,0.737571,16.830015,-22.665771,23.036091,6.217356,-1.614812,395.463623,6.018202,-5.47875,0,0,1
0.047458,0.060786,0.796165,-5.689069,-8.146688,4.120061,5.61707,-2.456903,395.879761,4.358245,-3.401389,0,0,1
0.021091,0.092036,0.785667,-15.383725,-1.139054,-12.383757,4.115627,-2.551054,394.628998,6.678983,-1.527268,0,0,1
0.083347,0.067866,1.137474,-32.940979,-3.795543,-23.299788,0.840922,-2.959383,392.275726,3.405315,-4.183361,0,0,1
0.120456,-0.212652,1.615013,-47.460064,4.051785,-23.421925,-4.023104,-2.583732,389.910126,-7.480554,-4.22915,0,0,1
0.1207,0.075678,0.903099,23.028488,18.112854,-37.467724,-1.568321,-0.890972,386.125885,4.74808,-7.586258,0,0,1
0.041599,-0.010503,0.785423,26.814749,12.204456,-26.276886,1.101867,0.274215,383.471924,-0.765095,-3.031474,0,0,1
0.015476,0.044917,0.736351,-1.231053,2.738808,-14.765435,1.027778,0.515783,381.980621,3.48988,-1.201752,0,0,1
-0.037503,0.044428,0.854271,-22.528763,-8.207756,3.600977,-1.16319,-0.25673,382.34433,2.974252,2.510313,0,0,1
-0.088772,0.082758,1.084495,-35.872276,-0.925314,30.074259,-4.603579,-0.249862,385.381836,4.349319,4.666066,0,0,1
0.114353,-0.232183,1.590599,-51.429527,30.357128,37.738384,-9.767679,2.678502,389.19342,-8.283852,-4.069101,0,0,1
0.025974,-0.042242,1.083763,13.181161,4.357129,11.997923,-8.312284,3.028763,390.405212,-2.231441,-1.371856,0,0,1
0.04404,-0.031255,0.806175,24.555206,-12.314627,20.486473,-5.759902,1.686796,392.474335,-2.216941,-3.124526,0,0,1
0.055759,0.044428,0.716819,-1.948611,-15.780275,4.517007,-5.766859,0.00234,392.930542,3.535982,-4.439391,0,0,1
0.021823,0.057368,0.809593,-15.704335,-3.459665,-8.063146,-7.124902,-0.370949,392.11615,4.051732,-1.540221,0,0,1
0.019138,0.045893,1.136985,-31.84174,-3.00165,-13.834138,-10.087878,-0.679904,390.718903,2.311095,-0.963525,0,0,1
0.129001,-0.05396,1.424095,-49.231056,-19.184856,-10.597497,-14.802234,-2.668669,389.64856,-2.161119,-5.172295,0,0,1
0.148776,-0.031255,1.02346,35.715511,20.112854,-39.009708,-11.005689,-0.789867,385.708588,-1.731026,-8.267129,0,0,1
0.053562,-0.078375,0.823997,31.242229,4.677739,-32.047878,-7.801659,-0.385116,382.471741,-5.42197,-3.70245,0,0,1
-0.004544,0.030756,0.702171,0.341466,-1.81081,-13.666199,-7.561668,-0.549239,381.091461,2.508003,0.370417,0,0,1
-0.001858,0.040766,0.807884,-9.108915,-3.673405,-2.719634,-8.254261,-0.899216,380.816772,2.888708,0.131631,0,0,1
-0.016995,0.072749,1.021507,-27.108915,7.731174,16.761282,-10.690957,-0.096985,382.509674,4.072988,0.950752,0,0,1
0.056491,-0.155523,1.489036,-65.872276,6.601403,28.807083,-17.116344,0.515144,385.419189,-5.958405,-2.160908,0,0,1
-0.000882,0.057124,0.890892,15.913985,2.952549,11.723114,-15.125477,0.798216,386.60321,3.668753,0.056597,0,0,1
-0.031155,-0.044683,0.87429,22.677343,-19.490198,26.746016,-12.636841,-1.106124,389.304565,-2.923867,2.03821,0,0,1
0.056247,0.040278,0.701438,7.56284,-9.765008,6.288,-11.570016,-2.142084,389.939667,3.275923,-4.577127,0,0,1
0.006687,0.041987,0.784202,-8.513495,9.059419,-4.322687,-12.119989,-1.212298,389.503082,3.064625,-0.487824,0,0,1
0.039646,0.120112,0.983177,-18.971512,-10.803176,-11.712001,-13.616199,-2.303192,388.32016,6.959543,-2.292114,0,0,1
0.059665,0.074213,1.23928,-26.986778,-16.314627,-7.345588,-15.946565,-3.926979,387.578247,3.423067,-2.75145,0,0,1
0.139011,0.020502,1.037864,34.768944,10.860946,-29.941008,-12.16377,-2.925969,384.554199,1.121686,-7.627279,0,0,1
-0.003079,-0.058111,0.899681,38.906349,10.494534,-18.475359,-8.143456,-1.824787,382.688202,-3.695609,0.195683,0,0,1
-0.000149,0.062983,0.714378,2.188794,5.471633,-4.658565,-7.663171,-1.24647,382.217682,5.038437,0.011937,0,0,1
-0.013333,0.069819,0.797874,-6.849374,1.044152,2.975023,-8.087852,-1.099116,382.518158,5.000297,0.953718,0,0,1
0.008151,0.106928,0.987083,-17.490595,5.456366,15.41777,-9.533667,-0.546471,384.075348,6.18239,-0.470388,0,0,1
0.019626,0.022456,1.21389,-33.551666,-16.543634,6.517008,-12.642745,-2.191552,384.733551,1.059647,-0.92611,0,0,1
-0.089505,0.069819,0.921897,35.82238,12.204456,9.921587,-8.757977,-0.829132,385.735626,4.310771,5.529597,0,0,1
-0.030179,-0.031988,0.921165,29.257496,-13.352795,18.944489,-5.726665,-2.096704,387.649017,-1.987752,1.875293,0,0,1
0.024753,0.00976,0.772483,7.379633,0.647206,6.50174,-4.867225,-2.027413,388.305695,0.723517,-1.835172,0,0,1
-0.006985,0.010493,0.898704,-8.421893,1.074686,-9.803603,-5.590102,-1.871586,387.315521,0.668897,0.445303,0,0,1
0.034274,0.124262,0.980491,-3.475328,-7.627604,-24.383757,-5.677918,-2.628858,384.852753,7.218493,-1.986163,0,0,1
-0.060452,0.038813,1.204368,-0.92571,9.441098,-15.269253,-5.619117,-1.58436,383.310547,1.843504,2.872009,0,0,1
0.076755,0.080073,0.956565,28.081924,-10.13142,-38.765434,-2.631791,-2.646915,379.395233,4.769734,-4.571668,0,0,1
-0.043362,-0.077886,1.072288,10.891085,8.952549,-13.299787,-1.584176,-1.66166,378.051941,-4.151034,2.309647,0,0,1
0.001804,0.060542,0.778831,-5.460061,-10.742107,-8.20055,-2.004032,-2.694327,377.223694,4.444869,-0.132293,0,0,1
-0.000394,0.047602,0.848411,-6.284489,7.364762,-0.673832,-2.521764,-1.910945,377.15564,3.211344,0.026536,0,0,1
0.000827,0.067866,1.031028,-8.635633,-3.536001,10.807083,-3.250764,-2.223637,378.247162,3.765966,-0.045867,0,0,1
-0.028714,0.084223,1.01638,0.112458,-16.406229,11.677313,-3.079915,-3.770799,379.426575,4.735157,1.612715,0,0,1
-0.008694,0.118403,0.773216,23.18116,-25.077986,7.433038,-0.549735,-6.164866,380.177307,8.705553,0.636806,0,0,1
-0.022854,0.044184,0.987327,8.936886,2.906748,9.249831,0.397066,-5.727365,381.111542,2.561661,1.324711,0,0,1
-0.005765,0.105463,0.855735,-4.467695,2.418198,-0.353221,0.087427,-5.365803,381.075867,7.025716,0.383068,0,0,1
-0.07803,0.099604,0.898216,-11.673801,-1.948215,1.662046,-0.943712,-5.352624,381.243744,6.304179,4.934866,0,0,1
-0.012356,0.021967,1.083274,-4.101283,13.914381,-11.712001,-1.307549,-3.855258,380.060822,1.161643,0.653386,0,0,1
-0.036282,-0.0669,1.247093,-24.040213,3.4869,-2.261619,-3.722286,-3.399739,379.832397,-3.069375,1.66407,0,0,1
0.04819,0.063959,0.727317,18.005589,-12.61997,-15.742535,-1.765354,-4.656393,378.242401,5.014659,-3.776219,0,0,1
-0.020657,-0.080328,1.03054,8.662077,20.005983,8.547542,-0.961798,-2.560176,379.105713,-4.456138,1.144871,0,0,1
0.010593,0.062495,0.858909,-18.421892,-3.032184,5.829985,-2.682736,-2.823192,379.69455,4.161219,-0.70472,0,0,1
-0.010159,0.013911,0.92556,-0.956244,4.128121,8.547542,-2.706511,-2.345551,380.557861,0.861007,0.628797,0,0,1
-0.065823,0.082026,1.047386,-0.406626,1.013618,17.265099,-2.603245,-2.12661,382.301636,4.469191,3.585092,0,0,1
-0.01138,0.044672,1.081077,-13.582198,-17.703939,26.257465,-3.848223,-3.824362,384.953644,2.366104,0.602584,0,0,1
-0.071683,0.130122,0.798606,30.47887,-15.658138,23.784184,-0.570105,-5.196464,387.355835,9.217793,5.062694,0,0,1
0.023532,-0.02564,0.97097,13.837649,-6.284092,24.196396,0.780704,-5.742291,389.799683,-1.512199,-1.387854,0,0,1
0.005954,0.0852,0.821067,6.097191,10.097587,12.471206,1.487071,-4.636251,391.059265,5.924055,-0.413263,0,0,1
-0.029935,0.064204,0.885765,-6.528763,-0.085619,0.425404,0.89398,-4.513391,391.102234,4.14341,1.930523,0,0,1
-0.016507,0.079829,1.058372,-1.658534,-4.314627,-10.658566,0.798197,-4.832364,390.025726,4.312893,0.891007,0,0,1
0.010837,-0.003667,1.1697,-31.353191,-5.581802,-1.559329,-2.324699,-5.29882,389.868225,-0.179637,-0.53081,0,0,1
0.028415,0.082758,0.875755,26.15826,-14.19249,-18.414291,0.418851,-6.63462,388.008392,5.395562,-1.85015,0,0,1
0.014499,-0.060796,1.031517,13.150626,11.471633,-10.673833,1.644669,-5.382543,386.930328,-3.372712,-0.803903,0,0,1
0.006931,0.04394,0.819847,0.982687,1.028885,-7.315053,1.770396,-5.182727,386.191498,3.067741,-0.483651,0,0,1
-0.005765,0.064204,0.848899,-2.024946,2.357129,-2.246351,1.62106,-4.838005,385.96463,4.325037,0.387966,0,0,1
-0.042142,0.070063,1.012474,-6.971511,6.051785,9.829985,0.977701,-4.094684,386.957458,3.955133,2.377734,0,0,1
-0.030667,0.083002,1.089866,-26.101282,-23.139055,13.356702,-1.538289,-6.270952,388.306488,4.35343,1.60713,0,0,1
-0.017972,0.033686,0.923362,15.776581,-0.940581,5.753649,0.095821,-6.216346,388.887604,2.088938,1.114283,0,0,1
0.029636,0.014155,0.858421,23.517038,-3.780276,-5.437191,2.440504,-6.505731,388.33844,0.944121,-1.977,0,0,1
0.000827,0.060542,0.849388,-5.368458,-1.184856,-6.933374,1.941863,-6.494007,387.638184,4.076954,-0.055654,0,0,1
-0.013089,0.068598,0.851341,0.26513,-1.551268,-22.918108,2.021392,-6.500112,385.323456,4.606204,0.877975,0,0,1
0.028659,0.098383,0.992454,-9.002046,-8.482566,-26.460093,1.203121,-7.242634,382.651001,5.658967,-1.646012,0,0,1
-0.033597,0.046625,1.165061,-28.43716,-25.994017,-12.215817,-1.589836,-9.637661,381.417206,2.29079,1.650451,0,0,1
0.084323,0.028559,1.049339,16.997955,-2.818444,-23.650932,0.155498,-9.81573,379.028473,1.553985,-4.592635,0,0,1
-0.008206,-0.01148,0.924827,24.097191,6.708274,-19.605131,2.523305,-8.945263,377.04834,-0.711154,0.508337,0,0,1
-0.01138,0.077631,0.750267,1.471237,6.463999,-7.406657,2.736598,-8.109264,376.300262,5.906793,0.864369,0,0,1
-0.045315,0.01684,0.886009,-2.650901,2.57087,8.639145,2.441229,-7.634068,377.172821,1.087466,2.927346,0,0,1
-0.056302,0.041499,1.044212,-1.73487,-2.604703,32.929222,2.266137,-7.677523,380.498688,2.272525,3.083853,0,0,1
0.003757,0.010493,1.117942,-54.101284,-21.077986,53.692581,-3.123376,-9.614122,385.921631,0.537742,-0.192533,0,0,1
-0.066556,0.108881,0.784202,17.3491,-41.612335,38.318535,-1.186162,-13.444524,389.791809,7.87665,4.805223,0,0,1
-0.167142,-0.068365,1.013938,29.975054,0.357129,63.249832,1.72837,-12.953487,396.180054,-3.806115,9.339849,0,0,1
-0.129056,-0.007818,0.892112,10.936886,-5.536001,75.753647,2.766397,-13.077748,403.831177,-0.496916,8.231164,0,0,1
-0.043606,0.004145,0.870384,12.723145,-3.749741,72.669678,3.975856,-13.129981,411.170807,0.272515,2.868102,0,0,1
0.019626,0.047114,1.00637,6.692611,1.257892,59.600979,4.612371,-12.765195,417.190491,2.679868,-1.116004,0,0,1
0.057712,-0.222173,1.497337,-21.322657,25.395296,60.165863,2.240932,-10.039932,423.267242,-8.433739,-2.18338,0,0,1
-0.147366,-0.087408,1.233665,11.929253,26.18919,77.539909,3.296386,-7.111027,431.098785,-4.024237,6.795057,0,0,1
-0.077542,-0.017828,0.90139,18.585741,-2.329894,104.379601,5.047498,-7.101102,441.641113,-1.128877,4.915804,0,0,1
-0.082181,-0.063238,0.910179,12.295665,15.044151,124.77655,6.084405,-5.367072,454.24353,-3.958383,5.146944,0,0,1
-0.058499,-0.085455,0.974632,2.295664,25.074686,139.478836,6.089905,-2.709402,468.330902,-5.001857,3.421771,0,0,1
-0.060208,-0.111089,0.960228,10.570474,27.31896,142.13533,6.882644,0.1201,482.686584,-6.586428,3.564142,0,0,1
-0.141019,-0.1294,1.064964,2.936886,18.983084,153.906311,6.898315,2.146414,498.23111,-6.868468,7.488566,0,0,1
-0.037503,-0.091802,1.044212,-8.421893,2.387664,134.959747,5.82633,2.380796,511.86203,-5.02104,2.049001,0,0,1
-0.040188,-0.062505,0.907005,-13.627999,23.822777,122.990288,4.282135,4.74178,524.284058,-3.938399,2.531064,0,0,1
-0.049954,-0.015142,0.956077,-9.536397,13.273159,107.494102,3.234458,6.020533,535.140991,-0.906123,2.990555,0,0,1
0.000095,0.054438,1.026878,-12.299755,-5.230657,75.585709,2.013031,5.382287,542.775146,3.034587,-0.005278,0,0,1
0.059421,-0.054449,1.224876,-40.574566,-8.375695,56.45594,-2.094146,4.390122,548.477173,-2.542276,-2.774607,0,0,1
0.011081,0.018061,1.035667,19.761312,-6.314627,18.242199,-0.076308,3.66504,550.319641,0.999025,-0.612916,0,0,1
-0.030667,-0.106695,1.06594,12.982687,20.387663,22.547541,1.095972,5.642505,552.596924,-5.713609,1.63975,0,0,1
0.039646,0.032709,0.846702,-0.009679,-34.589436,23.219297,1.117293,2.052416,554.942078,2.20991,-2.678832,0,0,1
0.035495,0.052485,0.869896,-6.498229,-20.803177,23.204031,0.52075,-0.094378,557.285706,3.449873,-2.332358,0,0,1
-0.026761,0.07934,0.968284,-1.322656,4.983083,25.875786,0.473069,0.432291,559.89917,4.68252,1.577811,0,0,1
-0.082669,0.08227,1.167747,-10.742503,-7.994016,31.967388,-0.519288,-0.286814,563.127869,4.019911,4.039436,0,0,1
-0.047513,-0.021978,1.003685,44.84528,12.540335,21.41777,3.904824,1.014357,565.291077,-1.253022,2.709612,0,0,1
-0.090726,-0.144292,1.144554,9.852917,19.273159,39.616245,4.658708,2.991663,569.292297,-7.163069,4.496755,0,0,1
-0.027249,-0.001226,0.777855,10.662077,-9.32226,28.333801,5.619061,2.049238,572.153992,-0.090256,2.006306,0,0,1
0.035251,0.045161,0.849388,-2.742504,-15.658138,10.39487,5.296044,0.410948,573.203857,3.040851,-2.373156,0,0,1
0.042331,0.117426,0.969261,-6.834107,-2.467299,-11.086046,4.651708,0.108864,572.084167,6.901224,-2.482591,0,0,1
0.041599,0.054682,1.241722,-26.391359,-10.635238,-13.864673,1.996859,-0.984327,570.683838,2.520113,-1.916879,0,0,1
0.095798,0.086176,0.902366,53.975052,4.463999,-34.414288,7.407871,-0.643449,567.208008,5.424919,-6.032746,0,0,1
0.050388,-0.034185,0.969017,27.578108,17.563236,-28.979176,9.94904,1.048334,564.281128,-2.017724,-2.974783,0,0,1
0.021823,0.074458,0.804954,1.852916,-0.971115,-18.780703,10.039118,0.900319,562.384277,5.282839,-1.546377,0,0,1
-0.012845,0.082026,0.867698,-2.498229,-1.047451,-5.849404,9.699055,0.795522,561.793457,5.39969,0.844336,0,0,1
-0.009915,0.055659,1.11428,-8.879908,-2.696306,14.379602,8.68333,0.522915,563.245789,2.859455,0.509179,0,0,1
0.088229,-0.110113,1.362571,-50.345558,8.708274,30.730747,3.434248,1.300545,566.349609,-4.610561,-3.692851,0,0,1
-0.020901,-0.02271,1.159202,15.532306,20.555601,10.807083,4.880507,3.329783,567.441101,-1.122181,1.03278,0,0,1
0.000827,0.061762,0.773216,12.64681,-5.032184,8.959755,6.126017,2.76388,568.346008,4.56692,-0.061098,0,0,1
0.002292,0.062983,0.813499,-8.498229,0.357129,3.509374,5.250884,2.740732,568.700439,4.427118,-0.160946,0,0,1
0.032321,0.126948,0.865745,-8.024946,-16.284092,-8.933374,4.518284,1.031809,567.798157,8.336339,-2.115458,0,0,1
0.066257,0.029536,1.226829,-16.162352,-5.444398,-14.704367,2.855711,0.410477,566.312988,1.377111,-3.090452,0,0,1
0.108005,-0.110845,1.498558,-9.108915,5.97545,-32.887569,1.812608,0.911495,562.991333,-4.219442,-4.111133,0,0,1
0.057712,-0.025396,1.106224,7.56284,26.967815,-33.925739,2.498659,3.502827,559.564819,-1.313344,-2.98564,0,0,1
-0.016751,0.07226,0.703636,9.486505,-8.177222,-22.231085,3.504896,2.650521,557.319458,5.861816,1.356612,0,0,1
0.038425,0.033442,0.824485,-1.673801,9.257893,-7.22345,3.315529,3.460535,556.589905,2.320181,-2.666127,0,0,1
-0.024075,0.135737,0.893577,-21.398993,-9.780275,14.486473,1.303831,2.453789,558.05304,8.63427,1.525823,0,0,1
-0.034085,0.076899,1.312767,-8.742503,1.70064,26.135328,0.479448,2.602738,560.692688,3.351301,1.484762,0,0,1
-0.02969,0.030024,1.029808,59.547569,17.853312,17.555176,6.397264,4.350819,562.465759,1.669286,1.650739,0,0,1
0.081638,-0.033941,1.021263,37.318562,6.143389,4.181129,9.925162,4.780518,562.888062,-1.897435,-4.567881,0,0,1
0.086765,0.049311,0.758323,-0.757771,-10.223023,-6.460092,9.725584,3.542762,562.235596,3.696451,-6.513557,0,0,1
0.062839,0.044917,0.814231,-5.185252,-4.161955,-28.826504,9.080799,2.971828,559.324097,3.148138,-4.40642,0,0,1
0.108493,0.124018,0.923362,-17.169985,-5.536001,-51.589863,7.351659,2.231592,554.113525,7.598043,-6.642305,0,0,1
0.094333,0.026362,1.305442,-14.376091,-0.925314,-47.253983,5.804757,2.012727,549.340881,1.153853,-4.132246,0,0,1
0.220065,0.047358,0.90847,40.616272,-2.5131,-79.070778,9.766868,1.451744,541.354736,2.900356,-13.599111,0,0,1
0.118991,-0.082037,0.969749,29.807116,10.097587,-80.047882,12.425845,2.282754,533.269897,-4.799638,-6.97075,0,0,1
0.019626,0.00976,0.750511,1.45597,-0.100886,-59.8036,12.336336,2.197156,527.229736,0.744825,-1.497826,0,0,1
-0.034085,-0.023687,0.835716,-15.612733,-14.848978,-39.208183,10.511818,0.730153,523.269714,-1.622173,2.334598,0,0,1
-0.034817,0.107661,0.999534,-16.559298,-5.780275,-11.376122,8.785421,0.18309,522.120728,6.143976,1.983548,0,0,1
0.149509,0.057368,1.296897,-29.46006,5.80751,0.349069,5.744079,0.62286,522.156006,2.516159,-6.569768,0,0,1
0.132419,0.061518,0.955833,18.509405,12.005983,-46.414288,7.534214,1.641328,517.46814,3.647773,-7.871342,0,0,1
0.136325,0.058344,0.836448,18.265131,-5.169589,-55.238716,9.270178,0.912122,511.889038,3.938257,-9.234687,0,0,1
0.07529,0.037104,0.822532,11.242229,-8.864245,-78.918106,10.248973,-0.087997,503.918304,2.572094,-5.22468,0,0,1
-0.004056,0.032465,0.868187,5.578107,-5.368062,-87.116585,10.638947,-0.612218,495.119537,2.141521,0.267464,0,0,1
0.077731,-0.022222,1.165306,-13.887542,-11.32226,-83.986809,9.029778,-1.796962,486.636871,-1.090066,-3.815557,0,0,1
0.144382,-0.05689,1.44387,-32.253956,-4.803176,-96.078415,5.611784,-2.350561,476.932953,-2.245167,-5.705992,0,0,1
0.212985,-0.027349,1.065696,3.471237,9.318961,-104.734901,5.8143,-1.607126,466.354736,-1.441572,-11.298351,0,0,1
0.001804,0.077875,0.687767,-0.895176,-12.375695,-73.22345,5.73861,-2.802917,458.959167,6.460037,-0.149307,0,0,1
0.037448,-0.024419,0.899925,-3.200519,-5.490199,-65.467728,5.275991,-3.337918,452.346924,-1.552995,-2.381978,0,0,1
-0.003323,0.070063,0.891624,-1.643267,-7.306993,-56.002075,5.09768,-3.990148,446.690704,4.492986,0.212894,0,0,1
-0.043851,0.050532,1.202659,-25.093649,1.670106,-20.6891,2.560045,-3.703311,444.601105,2.404367,2.086318,0,0,1
0.022067,-0.181158,1.454124,-5.994412,16.463999,-1.589863,1.773504,-2.016894,444.440521,-7.100626,-0.86277,0,0,1
0.138278,-0.108648,1.168235,4.051389,8.036518,-21.315054,2.033506,-1.315535,442.287689,-5.2767,-6.721674,0,0,1
0.061862,0.092036,0.798606,-0.650901,-0.161955,-20.6891,2.059502,-1.393263,440.19809,6.554603,-4.400436,0,0,1
0.003024,0.040034,0.831077,5.379633,-0.72684,-27.00971,2.605945,-1.441506,437.470123,2.757836,-0.208266,0,0,1
-0.038968,0.128413,0.84011,0.448336,-3.123787,-15.727268,2.771829,-1.669363,435.881683,8.681322,2.625263,0,0,1
-0.020169,0.036616,1.266136,-7.261588,-19.64287,-4.704366,2.030766,-3.561982,435.406555,1.656281,0.912236,0,0,1
0.045993,-0.053228,1.232933,34.891083,-13.108521,-11.00971,5.394264,-4.830912,434.294586,-2.470316,-2.134378,0,0,1
0.030856,-0.149908,1.208274,12.982687,0.173923,0.349069,6.430003,-4.746114,434.329834,-7.070128,-1.451754,0,0,1
-0.005765,0.052973,0.723899,4.158259,-0.390963,12.959755,6.796691,-4.680788,435.638763,4.185169,0.455039,0,0,1
0.002048,0.022944,0.819603,0.463603,8.372396,17.555176,6.738715,-3.761334,437.411835,1.603507,-0.143102,0,0,1
0.001315,0.07812,0.945823,-14.559298,-5.016917,38.394871,5.257293,-4.18427,441.289703,4.721584,-0.079415,0,0,1
0.098483,0.045893,1.28054,-11.108915,-14.971115,44.501743,4.093516,-5.670326,445.784393,2.046498,-4.39502,0,0,1
-0.123929,-0.262701,1.556419,4.280397,28.250259,58.639145,4.244305,-2.670923,451.70694,-9.550723,4.489297,0,0,1
-0.092435,-0.1919,1.281272,-2.940977,22.952549,74.761284,3.698396,-0.264042,459.257843,-8.496284,4.080967,0,0,1
0.034519,0.000971,0.774925,5.07429,-10.177222,59.295635,4.128116,-1.317113,465.246704,0.071736,-2.550518,0,0,1
0.028171,0.016352,0.799583,2.310931,13.929647,46.318535,4.297707,0.047638,469.924866,1.170851,-2.017388,0,0,1
-0.009427,0.092524,0.846702,-14.43716,-12.528367,29.066626,2.907481,-1.18069,472.860596,6.235906,0.634102,0,0,1
0.038913,0.039057,1.241722,-6.131817,10.952549,20.257465,2.278418,-0.108874,474.906586,1.800705,-1.794062,0,0,1
-0.042874,-0.132818,1.534935,-12.147083,-15.780275,26.99029,0.93166,-1.636748,477.632599,-4.943566,1.594025,0,0,1
-0.090726,-0.114263,1.207298,40.127724,27.944916,54.684948,4.77704,1.247545,483.155792,-5.39147,4.278518,0,0,1
-0.016995,-0.027837,0.876976,31.013222,1.089954,78.364334,7.714834,1.352671,491.070587,-1.81776,1.109651,0,0,1
-0.02969,-0.005621,0.790062,24.677343,22.112854,89.707848,9.994955,3.557389,500.131073,-0.407316,2.152102,0,0,1
-0.020413,-0.018316,0.875022,5.028489,19.028885,103.06662,10.2688,5.396443,510.540802,-1.198811,1.336098,0,0,1
-0.027493,-0.097173,1.057884,-2.467695,20.326595,124.990288,9.714241,7.330091,523.164795,-5.246492,1.482477,0,0,1
0.094577,-0.190191,1.273948,-61.734871,20.326595,140.410141,3.240076,9.111427,537.346191,-8.468152,-4.199444,0,0,1
-0.083401,0.016108,0.979271,-3.73487,7.731174,121.188759,2.824377,9.791777,549.586243,0.938968,4.867298,0,0,1
-0.072659,-0.111333,1.021995,8.784214,2.769343,115.09716,3.513319,9.950907,561.21106,-6.201607,4.042788,0,0,1
-0.095364,-0.045904,0.944847,-1.857008,8.525067,118.959755,3.203898,10.710833,573.226013,-2.767395,5.756654,0,0,1
-0.057767,-0.042974,0.943626,-0.956244,22.326595,109.081894,2.993118,12.776492,584.243286,-2.602667,3.499525,0,0,1
0.003269,-0.017828,0.994407,-7.200519,14.173923,86.852882,2.200006,13.920132,593.015442,-1.027078,-0.188297,0,0,1
0.03403,-0.183599,1.324241,-24.055481,23.471632,80.593338,-0.382822,15.935788,601.155396,-7.890868,-1.458118,0,0,1
0.026706,0.060542,0.982444,-47.902809,2.494534,80.852882,-5.046086,15.832899,609.321533,3.525,-1.554157,0,0,1
0.082858,0.033442,0.952415,-4.345557,-10.589436,63.799454,-5.335219,14.368716,615.765259,2.003424,-4.969064,0,0,1
0.038181,0.019282,0.987815,-9.169985,3.609038,60.318535,-6.113812,14.394302,621.857422,1.117413,-2.213052,0,0,1
0.051853,0.084711,0.948021,-11.093649,-20.039818,49.952122,-6.987614,12.060509,626.902588,5.098587,-3.118307,0,0,1
0.024509,0.04394,1.160911,1.226962,14.662472,41.066628,-6.683075,13.246419,631.050293,2.167101,-1.208566,0,0,1
0.039157,-0.183843,1.503685,-17.84174,9.028885,37.310902,-8.454752,13.845556,634.818665,-6.968155,-1.480673,0,0,1
0.117038,0.042475,0.895286,35.868183,1.120488,-62.84177,14.791997,14.139094,593.657288,2.693367,-7.439597,0,0,1
-0.058011,-0.001714,0.970237,-18.482962,11.578503,-39.22345,-65.294968,63.90799,420.877991,-0.101058,3.421651,0,0,1
0.064792,-0.108404,0.995872,-1.612733,2.57087,-53.849403,-64.271103,62.807766,415.493042,-6.199362,-3.70065,0,0,1
-0.064847,0.114985,1.006614,-1.124183,13.731174,-59.131847,-62.966885,62.983971,409.520721,6.503249,3.662185,0,0,1
-0.057767,0.013911,1.080345,-8.940977,-17.093252,-25.101313,-62.577793,60.093613,406.985474,0.736654,3.060468,0,0,1
-0.096585,0.020014,0.977806,4.662076,1.318961,-30.811237,-60.841446,59.135094,403.873535,1.166914,5.640047,0,0,1
-0.133694,0.052729,0.938011,-0.147084,-30.314627,0.730748,-59.57547,55.113834,403.947327,3.185294,8.099095,0,0,1
-0.068753,0.039301,0.922386,7.486504,-17.551268,14.455938,-57.594288,52.359512,405.407379,2.433057,4.258988,0,0,1
-0.124905,0.093012,1.018089,12.310931,-7.444398,46.639145,-55.120239,50.71479,410.11792,5.181395,6.965716,0,0,1
-0.132229,-0.13648,1.199974,-8.284488,-18.742107,51.402504,-54.966835,47.970367,415.30957,-6.44999,6.248301,0,0,1
-0.079983,-0.006109,1.115745,6.799481,-17.398596,72.394867,-53.200741,45.37085,422.62146,-0.312898,4.100235,0,0,1
-0.001614,-0.061773,1.044456,7.761313,-0.864245,59.738384,-51.436207,44.379658,428.655029,-3.384735,0.088399,0,0,1
-0.02554,-0.000982,0.892601,-0.834107,34.036518,54.242199,-50.491302,46.89378,434.133484,-0.063004,1.63896,0,0,1
0.004978,0.025141,0.932151,-7.658535,-8.894779,44.440674,-50.208622,45.069386,438.621979,1.544932,-0.305836,0,0,1
0.087253,0.044917,0.988792,11.807115,-0.833711,18.196396,-47.983963,43.984722,440.459808,2.590855,-5.037661,0,0,1
-0.000149,0.070063,0.99929,-0.895176,-24.818443,16.562809,-47.032677,40.64867,442.13266,4.010602,0.008546,0,0,1
0.039157,-0.05689,1.022239,26.616276,32.158657,22.455938,-43.521206,42.974957,444.400696,-3.183036,-2.190276,0,0,1
0.005222,-0.01856,0.93264,-1.185252,0.036518,13.387237,-42.790897,42.112656,445.752808,-1.14005,-0.320722,0,0,1
-0.011868,0.02685,0.884788,12.830015,10.005983,22.730747,-40.630409,42.276157,448.048615,1.738029,0.768141,0,0,1
-0.02139,0.062495,0.879905,-2.92571,-5.413863,26.486473,-40.026165,40.922554,450.723755,4.061373,1.389033,0,0,1
-0.036038,0.058833,1.024681,1.089557,14.540335,34.333801,-39.052116,41.583527,454.191467,3.28403,2.010957,0,0,1
-0.084134,-0.016363,1.146263,-11.73487,-18.238291,37.982658,-39.448906,39.030579,458.02771,-0.815643,4.197463,0,0,1
0.022556,-0.071783,1.021751,0.448336,-2.009283,35.921589,-38.695908,38.02586,461.655792,-4.017714,-1.261519,0,0,1
0.035007,0.038081,0.85305,11.181161,-5.169589,32.165863,-36.764198,36.706707,464.904541,2.553868,-2.347609,0,0,1
0.000583,0.04394,0.847435,-1.185252,1.746442,18.226931,-36.086864,36.144653,466.745453,2.968158,-0.039365,0,0,1
0.002536,0.018061,0.985618,3.059023,1.899114,-3.406657,-35.041351,35.606785,466.401367,1.0498,-0.147405,0,0,1
0.015476,0.073969,1.031761,1.486504,-1.551268,-16.918108,-34.111385,34.723965,464.692627,4.100187,-0.857127,0,0,1
0.085544,-0.010992,1.115013,-15.047847,-10.253558,-9.055511,-34.929855,32.926849,463.778015,-0.563144,-4.386935,0,0,1
0.199313,0.005122,0.941673,8.982687,20.815144,-27.818871,-33.336056,34.089581,460.968323,0.304864,-11.950612,0,0,1
0.086276,0.018793,0.930442,2.005588,5.792243,-41.834137,-32.447777,33.875175,456.743073,1.152185,-5.296596,0,0,1
0.011569,0.032954,0.905784,5.913985,9.761709,-37.498257,-31.171789,34.149261,452.95575,2.083407,-0.7313,0,0,1
0.027194,0.09643,0.813499,0.295664,-7.688673,-46.078411,-30.383965,32.667229,448.301819,6.756417,-1.901318,0,0,1
0.024509,-0.040533,1.106468,4.26513,14.158655,-39.452457,-29.39607,33.389946,444.317108,-2.097437,-1.268071,0,0,1
0.058933,-0.083501,1.214622,-29.276855,26.952549,-21.131847,-31.784533,35.334488,442.1828,-3.928111,-2.771242,0,0,1
0.078708,-0.062505,1.053001,-5.963878,19.86858,-60.826504,-31.806898,36.509045,436.039337,-3.387622,-4.26722,0,0,1
0.017185,0.038813,0.996116,7.791847,-0.207757,-64.093681,-30.354906,35.738548,429.565887,2.23103,-0.987595,0,0,1
0.035739,0.00561,0.912132,29.486504,-10.177222,-92.887573,-26.822193,33.971558,420.184235,0.35211,-2.24378,0,0,1
-0.01846,-0.021246,0.905784,26.448336,-0.329894,-110.750168,-23.694761,33.282822,408.998474,-1.343375,1.16721,0,0,1
0.038425,-0.113775,1.090599,11.425435,-17.154322,-119.910477,-22.209017,30.879089,396.887512,-5.952077,-2.006971,0,0,1
0.062106,-0.156988,1.173851,8.799481,-9.887146,-129.284515,-21.046001,29.222839,383.829773,-7.606877,-3.001922,0,0,1
0.075778,-0.060064,1.076927,-3.215786,2.601404,-108.383759,-21.007069,28.815493,372.883026,-3.184421,-4.018778,0,0,1
0.027683,-0.053716,1.063743,-2.43716,-20.207756,-106.185287,-20.885954,26.209244,362.158325,-2.889858,-1.48882,0,0,1
-0.002103,0.023432,0.92678,5.242229,-31.581802,-87.315056,-19.920393,22.561691,353.339508,1.448318,0.129942,0,0,1
-0.036526,-0.042486,1.017112,3.501771,-15.352795,-72.689102,-19.223186,20.631935,345.997894,-2.390375,2.054922,0,0,1
-0.117337,0.062739,0.956077,-2.284488,2.860946,-55.421921,-18.990311,20.642113,340.400269,3.726545,6.981909,0,0,1
-0.106839,0.055415,0.967308,13.379634,-4.329894,-50.078411,-17.221008,19.92655,335.342346,3.258968,6.292523,0,0,1
-0.10513,-0.017095,0.971946,-2.421893,-3.581802,-53.986809,-17.136345,19.29694,329.889679,-1.001809,6.17241,0,0,1
-0.110257,0.012446,0.937034,2.280397,10.433465,-43.879936,-16.55279,20.077911,325.457794,0.755752,6.710307,0,0,1
-0.080716,0.019038,0.942161,-12.284488,-28.955849,-33.574593,-17.414587,16.908215,322.066772,1.153355,4.895632,0,0,1
-0.001614,0.025385,1.024436,5.532305,-2.879512,-38.246349,-16.490318,16.28684,318.203888,1.419481,0.090256,0,0,1
-0.048733,0.030024,1.066673,15.181161,-1.551268,-45.391388,-14.625668,15.859857,313.619354,1.610615,2.614836,0,0,1
0.038181,-0.009039,1.021507,36.753677,1.609038,-49.788334,-10.705407,15.659113,308.590729,-0.506602,-2.140453,0,0,1
0.002292,-0.07813,1.069602,4.341465,9.883846,-49.040241,-10.145137,16.321785,303.637665,-4.177808,-0.12245,0,0,1
-0.000882,0.024165,0.912376,-2.742504,-7.10852,-59.437191,-10.183344,15.292855,297.634521,1.517141,0.055358,0,0,1
-0.005032,0.036372,0.883812,-2.406626,4.143389,-44.933372,-10.170753,15.40363,293.096252,2.356531,0.32595,0,0,1
-0.02969,0.055415,0.971702,3.929252,3.838045,-31.727266,-9.513173,15.510393,289.891785,3.262428,1.747295,0,0,1
-0.101712,0.023432,1.229026,6.799481,1.990717,-25.589863,-8.628127,15.491828,287.30722,1.088526,4.730054,0,0,1
-0.074612,0.050288,0.919456,33.593372,7.547969,-27.315054,-5.068087,16.021738,284.548401,3.120309,4.632397,0,0,1
-0.04971,0.038081,0.985374,26.15826,10.112854,-32.551693,-2.333374,16.759991,281.260681,2.210332,2.885848,0,0,1
-0.012112,0.031489,0.872093,2.127725,-17.505466,-37.360855,-2.034751,14.708005,277.487244,2.067689,0.795199,0,0,1
-0.021634,0.020502,0.874046,10.127726,8.463999,-45.040241,-0.964747,15.279961,272.938171,1.343326,1.417467,0,0,1
-0.036038,0.052973,1.030784,7.547573,1.410564,-53.513527,-0.139591,15.153974,267.533295,2.940113,1.999712,0,0,1
0.059421,-0.032964,1.140647,-26.81884,-27.551268,-55.528793,-2.82439,12.064254,261.924896,-1.653129,-2.980829,0,0,1
0.131687,-0.092046,1.107688,-1.398992,-0.528367,-57.773067,-3.000718,11.635539,256.089813,-4.717169,-6.756664,0,0,1
0.012546,0.098383,0.808128,5.898717,-20.971115,-59.269249,-2.218042,9.309449,250.103622,6.940331,-0.882907,0,0,1
0.020358,-0.013189,0.942649,2.524672,11.013618,-47.024975,-1.939817,10.188646,245.354095,-0.801408,-1.237103,0,0,1
-0.001614,0.088862,0.900413,-0.681435,-10.436764,-42.750168,-1.855744,8.953887,241.036331,5.636264,0.102223,0,0,1
-0.034573,0.01684,1.093284,-11.337923,-2.100886,-24.444824,-2.923216,8.603085,238.567398,0.882041,1.811063,0,0,1
0.010349,-0.069341,1.177513,-31.276855,6.845678,-4.994443,-6.027936,9.098555,238.062958,-3.370009,-0.502663,0,0,1
0.017185,-0.022222,0.982444,-6.482962,4.479266,-8.536427,-6.574972,9.339905,237.200775,-1.295569,-1.001839,0,0,1
0.024997,0.106196,0.863548,16.112459,-9.841344,-2.643298,-4.708503,8.146097,236.933807,7.007909,-1.645684,0,0,1
-0.027493,0.038325,0.895042,5.013221,-4.742107,15.036091,-4.069111,7.548957,238.452454,2.45069,1.757802,0,0,1
-0.018216,0.017084,0.846214,-7.03258,-2.02455,11.616243,-4.660687,7.222247,239.625687,1.156337,1.232922,0,0,1
-0.058743,-0.037359,1.111106,-20.574564,-37.001648,29.265099,-6.642405,3.475872,242.581467,-1.923055,3.024651,0,0,1
0.000095,-0.172125,1.159935,44.875816,13.80751,46.761284,-2.236561,4.772929,247.304352,-8.440617,-0.004628,0,0,1
0.068698,-0.145513,1.120628,-25.276855,-7.21539,47.692581,-4.841427,3.893713,252.121307,-7.384733,-3.4789,0,0,1
-0.000149,0.059565,0.926048,-10.192885,16.830412,51.768917,-5.679885,5.481898,257.349976,3.68029,0.009225,0,0,1
-0.05264,0.022456,0.955589,-7.765405,22.387663,68.45594,-6.308025,7.651234,264.264038,1.34412,3.152145,0,0,1
-0.008206,-0.092046,1.049339,3.975054,-3.612337,88.028458,-5.888672,7.149587,273.154907,-5.012914,0.446342,0,0,1
-0.014554,0.016596,0.998313,-0.101282,8.631938,95.555176,-5.761878,7.877687,282.805969,0.952309,0.8351,0,0,1
-0.037503,-0.056402,1.037132,-4.452427,-31.230658,97.982651,-6.149557,4.67028,292.702209,-3.110794,2.067873,0,0,1
-0.027493,-0.097906,1.09597,-18.147083,-8.02455,73.662041,-7.924829,3.811231,300.14209,-5.10323,1.431306,0,0,1
-0.072659,0.023432,0.935325,6.784214,59.731174,67.051353,-7.066216,9.736011,306.914276,1.430787,4.440619,0,0,1
-0.105862,-0.019537,1.034202,-15.902809,19.257893,38.303268,-8.520484,11.564307,310.782898,-1.076595,5.843481,0,0,1
-0.086575,0.000483,0.919212,-8.192885,-3.520734,23.997923,-9.160407,11.092149,313.206696,0.029968,5.380482,0,0,1
0.035495,-0.007085,0.978294,14.356733,-11.703939,-6.261618,-7.564463,9.670292,312.57428,-0.414694,-2.077878,0,0,1
0.000095,0.098139,0.926048,-4.81884,25.013617,-11.101314,-7.769153,11.952619,311.453033,6.049417,-0.005828,0,0,1
-0.030911,0.046137,1.032737,11.120092,-19.184856,-24.063145,-6.461967,9.848904,309.022644,2.556826,1.712716,0,0,1
-0.014554,0.06103,1.047874,-0.101282,-30.665771,-19.315054,-6.276096,6.632515,307.071838,3.332908,0.794372,0,0,1
-0.006497,-0.036626,1.005638,4.081923,27.563236,-4.765435,-5.788261,9.235473,306.590515,-2.085812,0.369917,0,0,1
-0.081204,0.045893,0.796897,22.402534,16.448732,39.387238,107.283051,-87.945267,509.11969,3.279062,5.808815,0,0,1
-0.06094,0.06225,0.781761,5.165893,4.082319,51.997925,105.734428,-89.297424,514.319458,4.539062,4.443344,0,0,1
-0.027005,0.068598,0.938743,-12.834106,8.815144,63.066628,102.432983,89.793915,520.689209,4.177708,1.643397,0,0,1
-0.0668,0.057124,1.206565,-11.108915,-9.780275,57.997925,99.338898,87.093292,526.546997,2.706444,3.165327,0,0,1
-0.120267,0.13476,0.819847,21.715511,4.448731,59.631512,99.686272,85.95649,532.569763,9.237253,8.236445,0,0,1
-0.05386,-0.048833,1.010276,24.601007,17.899113,45.204033,100.072289,86.069977,537.135376,-2.763421,3.04814,0,0,1
0.036228,0.082514,0.939231,-15.185251,4.418198,48.578079,36.606224,-74.182907,738.102905,5.016996,-2.200421,0,0,1
-0.024808,-0.020513,1.038108,-16.421892,-31.948215,55.509377,34.226028,-75.834106,743.709351,-1.131703,1.368666,0,0,1
-0.021878,-0.002447,1.044944,9.868183,14.906748,61.371971,34.515579,-72.817963,749.907898,-0.134131,1.199419,0,0,1
-0.020901,0.067377,0.924095,1.761313,-9.673406,59.646782,34.082981,-72.293228,755.932251,4.169098,1.292278,0,0,1
-0.005765,0.051508,1.069358,9.226962,7.80751,55.265102,34.369759,-70.068405,761.514038,2.757622,0.308507,0,0,1
-0.152005,0.059321,1.096214,17.868183,-11.566535,69.14296,35.512321,-69.654243,768.497498,3.068198,7.883106,0,0,1
-0.043118,0.02685,0.927269,27.852917,-20.864244,67.112427,37.592091,-70.273087,775.275879,1.656811,2.661233,0,0,1
-0.073147,-0.060552,1.035423,26.952152,33.670105,61.768917,39.4412,-65.454277,781.514526,-3.338583,4.034079,0,0,1
-0.057278,0.015131,0.856956,-11.857007,-4.72684,59.47884,37.498955,-64.536583,787.521912,1.00932,3.823327,0,0,1
-0.053616,-0.082769,0.857688,24.127726,6.647205,91.051353,50.896988,-59.246544,842.425903,-5.501442,3.560547,0,0,1
0.002292,0.04101,0.796897,6.738412,16.112854,-12.750169,59.36797,-35.515934,824.218689,2.945967,-0.164573,0,0,1
-0.065823,0.04394,0.960716,-15.750137,4.799877,4.898687,56.68935,-34.25692,824.708557,2.612577,3.915403,0,0,1
-0.054104,0.014399,1.16677,-6.009679,-1.734474,7.860519,54.97485,-33.690365,825.502441,0.706283,2.654768,0,0,1
-0.069241,-0.014166,1.049339,42.097191,1.70064,-6.536427,58.026699,-32.772732,824.842285,-0.771738,3.774878,0,0,1
-0.012112,-0.04688,1.003685,32.265129,4.525067,-4.857038,60.006287,-31.655575,824.351746,-2.674049,0.69065,0,0,1
0.035495,0.014643,0.786399,10.997954,-2.925314,-19.147116,59.916054,-31.363688,822.417908,1.065662,-2.583915,0,0,1
-0.050687,0.021479,0.825706,-0.757771,3.899114,-24.750168,58.672478,-30.280252,819.918152,1.487295,3.511547,0,0,1
-0.012112,0.103266,1.028343,-7.673801,-5.32226,-34.84177,56.854156,-30.188015,816.399109,5.73402,0.671449,0,0,1
-0.030911,0.021967,1.171409,-24.284489,-7.230658,-25.895206,53.334877,-30.269718,813.783691,1.073961,1.511304,0,0,1
0.056247,0.086176,0.898704,23.608641,-5.688673,-42.597496,54.714291,-30.298691,809.481323,5.466684,-3.564982,0,0,1
0.035983,-0.108892,1.034935,8.692611,12.296061,-34.18528,54.360348,-28.515263,806.028625,-6.002756,-1.980379,0,0,1
0.01279,0.02978,0.840599,-10.910442,-5.291726,-29.773069,52.233799,-28.486156,803.021545,2.028727,-0.871164,0,0,1
0.017917,-0.009039,0.898948,10.982687,-8.345161,23.066626,88.105568,-55.998871,882.163147,-0.575953,-1.141757,0,0,1
0.012302,-0.090337,0.897728,-1.73487,-3.047451,15.631511,86.058533,-55.193165,883.726318,-5.745736,-0.781143,0,0,1
-0.006497,-0.031255,1.065208,10.310931,23.639572,-2.872306,85.324326,-51.742474,883.436218,-1.680662,0.349312,0,0,1
0.12778,-0.02271,0.984642,-31.505863,-22.161955,-7.544061,80.473183,-53.049053,882.674255,-1.310291,-7.392199,0,0,1
0.113376,0.080073,1.057395,-19.215786,34.5098,-18.979176,77.047859,-48.694344,880.757385,4.305951,-6.102643,0,0,1
0.073093,-0.005621,1.026145,4.921618,4.219725,-34.994442,75.987785,-47.384274,877.222961,-0.313035,-4.07426,0,0,1
0.031101,0.09643,0.931663,19.547573,-21.597069,-70.292152,76.520966,-48.612305,870.123474,5.905992,-1.901774,0,0,1
0.027194,0.154047,0.899192,0.249863,18.540335,-88.322693,75.209625,-45.839085,861.202881,9.717037,-1.707412,0,0,1
-0.037259,0.060786,1.019554,21.883451,-6.177222,-83.849403,75.939651,-45.491943,852.73407,3.409657,2.089192,0,0,1
0.049655,0.015864,1.000755,12.784214,-2.864245,-97.131851,75.704384,-44.922413,842.923767,0.90705,-2.840206,0,0,1
0.15903,-0.064703,1.087669,-27.979145,-8.925314,-56.887569,71.353546,-45.073467,837.178101,-3.368634,-8.303914,0,0,1
0.078952,0.056879,0.9822,11.410169,24.479267,-34.765434,71.121925,-41.840805,833.666809,3.303675,-4.588068,0,0,1
0.035983,-0.112066,0.97219,4.830015,-9.306993,-35.910473,70.046135,-41.967312,830.039856,-6.571093,-2.105773,0,0,1
0.125583,0.021235,1.022483,-2.421893,-36.161957,-34.292152,68.429115,-44.84729,826.576355,1.180873,-7.000595,0,0,1
0.12778,0.069819,0.953636,7.501771,-27.429131,-2.185283,67.886063,-46.817516,826.355652,4.150383,-7.611629,0,0,1
0.098239,0.072993,1.10305,-24.803572,1.639572,25.356701,64.148712,-45.820446,828.916687,3.77106,-5.078371,0,0,1
-0.005521,0.041499,1.037376,15.684978,5.059419,-15.528795,64.46405,-44.397163,827.348267,2.290771,0.304659,0,0,1
-0.0668,0.189448,0.919456,-10.834106,1.166289,1.356702,62.334663,-43.312382,827.485291,11.612708,4.070119,0,0,1
-0.016751,-0.031988,0.966087,-26.467695,-7.765008,28.822351,58.430279,-43.194862,830.396362,-1.896125,0.992808,0,0,1
0.01279,-0.093267,1.043724,9.165894,1.227358,31.555176,58.066795,-42.223469,833.583435,-5.106004,-0.699295,0,0,1
0.023044,-0.065923,1.014427,-13.231053,16.922014,44.51701,55.521503,-39.73003,838.079651,-3.717228,-1.298582,0,0,1
0.006687,-0.080083,1.022972,-9.460061,24.784609,46.120064,53.385193,-36.489716,842.737793,-4.476184,-0.373359,0,0,1
0.001071,0.042963,0.933372,9.211695,-6.757375,30.517008,53.281971,-36.43008,845.820007,2.635479,-0.065692,0,0,1
0.044528,0.072993,0.964378,0.402534,-11.963482,17.784184,52.342651,-36.938351,847.616211,4.323811,-2.636117,0,0,1
0.02695,0.053217,1.02346,-13.719603,-19.780275,6.868153,49.997341,-38.187565,848.309875,2.975523,-1.506355,0,0,1
0.040378,-0.077398,1.118675,20.081924,10.967815,13.066626,50.905998,-36.379463,849.629578,-3.955259,-2.062236,0,0,1
0.003269,-0.003423,0.970237,21.288031,-4.146688,7.234565,51.990925,-36.066174,850.360291,-0.202158,-0.193017,0,0,1
-0.023831,0.085444,0.820579,21.074291,11.318961,22.272732,53.155884,-34.191406,852.609863,5.942086,1.654562,0,0,1
-0.021878,0.069819,0.819114,-1.322656,-4.604703,29.646778,52.059258,-33.932865,855.604187,4.870216,1.524439,0,0,1
-0.063382,-0.028082,1.185325,-6.895176,1.181556,43.845253,50.308487,-33.076057,860.032532,-1.355205,3.059954,0,0,1
0.0582,-0.263433,1.385765,-31.979145,4.387663,54.150597,45.92194,-32.0275,865.50177,-10.754208,-2.362668,0,0,1
-0.053372,-0.161138,1.166526,-0.513496,19.410564,48.746017,44.79554,-29.413792,870.42511,-7.856668,2.59502,0,0,1
0.050388,0.002436,0.844017,0.234595,-11.826077,40.318535,43.926147,-30.06439,874.497253,0.165075,-3.416482,0,0,1
0.033054,-0.021001,0.886253,-5.154717,7.670106,24.425404,42.510281,-28.74662,876.964233,-1.356537,-2.135316,0,0,1
0.051364,0.056635,0.941429,-7.795939,2.357129,0.440672,40.957184,-28.000727,877.008728,3.437598,-3.117331,0,0,1
0.010837,0.028315,1.180931,9.868183,-8.467299,-18.093679,41.142262,-28.289318,875.181274,1.373449,-0.525614,0,0,1
0.027683,-0.219976,1.3218,24.753679,11.700641,-16.719633,42.580605,-26.589073,873.492615,-9.446628,-1.183505,0,0,1
-0.008938,-0.091558,1.06887,6.524672,25.80751,-4.872305,42.27689,-23.493317,873.000488,-4.895766,0.477379,0,0,1
0.03403,0.029047,0.827415,9.181161,10.555602,-10.902841,42.38028,-22.02573,871.899292,2.008912,-2.353709,0,0,1
0.023044,0.043208,0.883812,2.066657,-2.161955,-6.078412,41.79319,-21.829041,871.2854,2.797882,-1.491775,0,0,1
-0.009183,0.044672,0.945579,-8.345557,-2.085619,0.944488,40.185375,-21.587778,871.380798,2.704708,0.555768,0,0,1
-0.029202,0.04687,1.063499,7.929252,0.540335,-7.482993,40.216953,-21.071114,870.625,2.522509,1.57134,0,0,1
-0.01846,0.088129,0.98098,28.219328,2.601404,-16.948641,42.308418,-20.370731,868.913208,5.132662,1.073735,0,0,1
0.033054,0.00268,0.980491,14.463603,11.196823,-30.124214,42.896988,-18.893673,865.870667,0.156529,-1.930781,0,0,1
0.021579,-0.028082,0.984886,6.723145,-1.413863,-48.673832,42.671848,-18.680836,860.95459,-1.632811,-1.254655,0,0,1
0.024509,0.019526,0.889915,9.684978,-3.887146,-62.643295,42.802158,-18.723513,854.627625,1.256465,-1.577182,0,0,1
0.081394,-0.0044,1.007591,15.807115,12.357128,-77.284523,43.505718,-17.2183,846.821899,-0.249383,-4.618302,0,0,1
0.127536,-0.05274,1.062034,-7.872275,-10.940581,-96.826508,41.799953,-18.093618,837.042419,-2.82268,-6.83932,0,0,1
0.203952,-0.034429,0.965843,19.837648,24.463999,-116.047882,42.887531,-15.548626,825.321594,-1.997533,-11.91634,0,0,1
0.113864,-0.20899,1.040061,33.226959,9.089953,-135.849411,45.092667,-14.460456,811.60083,-11.295957,-6.126272,0,0,1
-0.038479,-0.156011,1.067894,36.020855,-25.932947,-129.131851,47.590034,-16.697252,798.558533,-8.306368,2.041993,0,0,1
0.052585,-0.041998,0.954124,11.089558,-21.627604,-99.986809,47.685547,-18.567038,788.459839,-2.51654,-3.151525,0,0,1
0.057224,-0.07398,1.018821,3.959786,-13.398597,-92.276886,47.040844,-19.586016,779.139893,-4.146635,-3.206302,0,0,1
-0.067532,0.017084,0.935569,13.730779,-19.703939,-71.376122,47.479973,-21.062029,771.930908,1.04345,4.127936,0,0,1
-0.072171,0.031977,1.000999,17.165894,-40.635239,-86.58223,48.265957,-24.580431,763.186096,1.824965,4.121731,0,0,1
-0.115628,0.100581,1.008811,11.913985,15.975449,-67.773071,48.593021,-22.377441,756.341003,5.656896,6.506611,0,0,1
-0.123196,0.038081,1.03347,-10.040214,0.952549,-69.986809,46.669289,-21.699743,749.272339,2.095418,6.793383,0,0,1
-0.122952,0.051264,0.933616,-25.292122,6.265526,-48.582226,43.294811,-20.495762,744.36554,3.11606,7.49121,0,0,1
-0.061917,0.034907,1.041526,-15.933343,-21.536001,-60.261616,40.890156,-22.149477,738.279114,1.916168,3.400229,0,0,1
-0.001186,0.050784,0.990139,1.199023,2.657345,-0.804458,5.11763,1.280005,-32.246193,2.936095,0.068513,0,1,0
-0.001674,0.071292,0.995754,-1.243725,0.092459,-0.346443,4.974077,1.265478,-32.281185,4.095127,0.096066,0,1,0
0.004186,0.05054,1.009914,-0.129221,-1.571663,-0.514382,4.919102,1.079862,-32.333138,2.864862,-0.237162,0,1,0
-0.004604,0.056643,0.999172,-2.556702,-2.335022,-0.621252,4.63255,0.832415,-32.395885,3.244591,0.263556,0,1,0
0.011266,0.052981,0.983303,-4.220824,3.680245,-0.285374,4.1838,1.166929,-32.424709,3.083948,-0.655454,0,1,0
-0.009486,0.057864,0.965725,-9.152122,32.016125,0.813862,3.262822,4.323782,-32.34251,3.428753,0.561792,0,1,0
-0.046352,0.051272,0.95132,-3.472733,4.871085,-1.781558,2.915462,4.775155,-32.522446,3.081357,2.785403,0,1,0
-0.140102,0.015872,0.99258,-6.57197,89.084824,-0.376977,2.224801,13.65793,-32.56052,0.907105,8.033147,0,1,0
-0.304408,0.038333,0.950344,1.748641,80.413063,0.218443,2.397382,21.699005,-32.538456,2.199817,17.747452,0,1,0
-0.428676,0.003665,0.871975,-11.243725,84.855812,-5.231939,1.240852,30.187637,-33.066883,0.216089,26.179222,0,1,0
-0.537562,-0.010984,0.827053,-10.449832,62.321468,-5.079268,0.168951,36.412872,-33.579887,-0.637979,33.0205,0,1,0
-0.618861,-0.03491,0.816311,-2.08342,20.611544,-2.453313,-0.079681,38.467567,-33.827671,-1.95182,37.1413,0,1,0
-0.633998,-0.03198,0.75259,-3.365863,8.871085,-1.064,-0.448468,39.377998,-33.935135,-1.861371,40.086052,0,1,0
-0.643031,-0.049802,0.761623,-0.984183,-9.052579,-1.399878,-0.594119,38.496693,-34.076523,-2.860314,40.113853,0,1,0
-0.633998,-0.03613,0.923,8.786809,-55.983875,-7.384611,0.25052,32.87476,-34.822369,-1.84806,34.464256,0,1,0
-0.443812,-0.064695,0.755764,-1.839145,-105.724335,-10.651786,-0.020961,22.359306,-35.898197,-4.221655,30.331791,0,1,0
-0.384242,-0.046873,0.970119,17.947115,-97.174721,-7.796825,1.704422,12.725457,-36.685677,-2.572058,21.584536,0,1,0
-0.225551,-0.015378,0.95718,16.160854,-26.060211,0.294778,3.252017,10.156663,-36.655903,-0.895923,13.257702,0,1,0
-0.186732,0.006594,1.03384,17.336428,-30.731968,-1.018199,4.910129,7.116443,-36.758739,0.359631,10.23819,0,1,0
-0.09933,0.030032,0.98135,7.229558,-39.373188,0.890198,5.562387,3.192495,-36.668831,1.743941,5.776985,0,1,0
-0.051234,0.043704,0.982814,3.504366,-35.632732,1.058137,5.848855,-0.338659,-36.561958,2.542693,2.981202,0,1,0
0.013707,0.0376,1.003811,6.847878,-22.304487,0.111572,6.452579,-2.555219,-36.55069,2.144946,-0.781777,0,1,0
0.047643,0.05176,0.998928,3.443298,-30.640364,1.332946,6.723601,-5.591436,-36.416061,2.962813,-2.726927,0,1,0
0.108189,0.047366,0.986965,0.206657,-35.449528,1.195542,6.664209,-9.113374,-36.295311,2.731255,-6.248557,0,1,0
0.167027,0.056155,0.977687,-1.426931,-41.86174,2.019969,6.454495,-13.268165,-36.091293,3.240403,-9.679121,0,1,0
0.247838,0.074709,0.957912,-1.38113,-40.88464,1.775694,6.275061,-17.33884,-35.911949,4.317968,-14.463814,0,1,0
0.328893,0.055911,0.922512,-6.129221,-37.006775,2.019969,5.608236,-21.046772,-35.707932,3.267321,-19.588896,0,1,0
0.370641,0.033938,0.924221,-2.99945,-18.99151,3.74516,5.238225,-22.942396,-35.32967,1.952008,-21.838955,0,1,0
0.396275,0.043215,0.904445,-3.258992,-20.243418,2.584855,4.861004,-24.959969,-35.0686,2.505929,-23.636238,0,1,0
0.427525,0.028811,0.902248,-4.617771,-26.655632,1.455084,4.339776,-27.605991,-34.921635,1.652915,-25.342388,0,1,0
0.46317,0.026614,0.873928,-2.052886,-13.861739,1.103939,4.080612,-28.984146,-34.810139,1.541323,-27.912003,0,1,0
0.488316,0.008303,0.888088,0.847878,-14.380823,0.004702,4.09231,-30.40394,-34.809666,0.469399,-28.803202,0,1,0
0.516637,0.027346,0.858303,2.099786,-6.670899,1.256611,4.249574,-31.07679,-34.682747,1.563623,-31.032087,0,1,0
0.507604,0.029788,0.851467,-2.236092,-8.869373,-0.270107,3.977678,-31.948864,-34.71003,1.721181,-30.785954,0,1,0
0.519322,0.01929,0.853664,-2.510901,-6.945709,0.355847,3.671714,-32.623524,-34.674088,1.105937,-31.307539,0,1,0
0.521275,0.011477,0.84341,-4.19029,5.268031,2.997068,3.196789,-32.083946,-34.371384,0.663196,-31.716049,0,1,0
0.527379,0.011233,0.803371,-11.823878,21.588642,4.172641,1.975919,-29.971035,-33.949947,0.669682,-33.280628,0,1,0
0.464391,-0.023923,0.891506,-9.121588,43.313835,2.248977,1.006279,-25.634548,-33.722801,-1.363349,-27.506824,0,1,0
0.395055,-0.0249,0.947902,-6.816244,43.252766,2.493252,0.283702,-21.293053,-33.470982,-1.388974,-22.617762,0,1,0
0.308141,-0.030027,0.983791,1.641771,63.43597,1.974168,0.407164,-14.935977,-33.271591,-1.668341,-17.383867,0,1,0
0.217809,-0.017332,0.984768,1.244825,42.962688,1.287145,0.502544,-10.634208,-33.14159,-0.984492,-12.469893,0,1,0
0.158971,-0.010007,0.973537,2.61887,24.077192,0.203175,0.740084,-8.223835,-33.121071,-0.581245,-9.273603,0,1,0
0.0994,-0.019285,1.005275,-0.968916,27.039024,2.187908,0.607505,-5.495955,-32.900093,-1.093665,-5.645948,0,1,0
0.051061,-0.020505,1.043361,4.435664,26.825285,2.264244,1.011906,-2.786892,-32.671406,-1.124554,-2.801195,0,1,0
0.013463,-0.00366,1.002834,0.420397,20.962688,3.882565,1.029098,-0.67165,-32.279266,-0.209071,-0.769136,0,1,0
-0.007777,-0.002439,0.986965,3.122687,10.871085,2.44745,1.314767,0.426832,-32.032074,-0.141583,0.451484,0,1,0
-0.021938,-0.00073,0.991848,3.229557,10.535207,2.294778,1.607291,1.486412,-31.800301,-0.042158,1.26705,0,1,0
-0.043666,-0.005613,1.005275,-7.884946,14.122993,0.065771,0.788301,2.90432,-31.793657,-0.319597,2.487147,0,1,0
-0.053432,-0.034421,0.999904,-19.686474,-1.434258,-3.598351,-1.215408,2.765411,-32.157089,-1.968804,3.056984,0,1,0
-0.037318,-0.083005,1.006984,-22.633038,-0.457159,-1.751023,-3.525498,2.707157,-32.333942,-4.709,2.115216,0,1,0
-0.056117,-0.122312,1.021389,-18.663572,0.290932,-3.186138,-5.438679,2.744261,-32.655743,-6.818506,3.122521,0,1,0
-0.062221,-0.151121,1.004543,-16.5109,4.046658,-2.896061,-7.134937,3.160014,-32.948246,-8.53914,3.504994,0,1,0
-0.059291,-0.200193,0.977687,-35.808609,-5.327388,-5.980031,-10.767603,2.637509,-33.552231,-11.551369,3.400028,0,1,0
-0.049037,-0.267087,0.987453,-32.236092,-10.487694,-5.109802,-14.045328,1.601577,-34.068321,-15.117488,2.74452,0,1,0
-0.022914,-0.304685,0.938625,-32.510902,-10.899907,-2.010565,-17.341927,0.517276,-34.271389,-17.978825,1.33015,0,1,0
-0.021449,-0.346921,0.927395,-27.823877,0.122994,-0.025832,-20.159193,0.543924,-34.273998,-20.504881,1.24097,0,1,0
-0.001918,-0.389646,0.908107,-33.014717,-9.647999,0.82913,-23.488264,-0.419689,-34.190258,-23.222906,0.111207,0,1,0
0.009801,-0.449949,0.886379,-29.854412,-8.747235,-0.926596,-26.51173,-1.288395,-34.283844,-26.912107,-0.56489,0,1,0
0.022252,-0.510496,0.886135,-23.640671,-6.869373,1.271878,-28.920214,-1.967487,-34.155384,-29.938112,-1.246492,0,1,0
0.029332,-0.550535,0.856594,-20.938381,4.153527,5.241343,-31.068563,-1.550022,-33.626007,-32.713676,-1.650017,0,1,0
0.016637,-0.542722,0.815578,-16.19029,-2.411358,2.416916,-32.722427,-1.777156,-33.381897,-33.636074,-0.972921,0,1,0
0.027135,-0.591062,0.821926,-12.236092,-1.342655,-1.125069,-33.993221,-1.905215,-33.495529,-35.705818,-1.535326,0,1,0
0.028111,-0.625486,0.860744,13.290626,4.199329,-1.140336,-32.717663,-1.48173,-33.610703,-35.990646,-1.513415,0,1,0
0.022984,-0.576902,0.90298,75.855515,-6.640366,-1.506748,-25.20644,-2.133935,-33.762882,-32.565536,-1.228802,0,1,0
0.040562,-0.449216,0.834133,56.695206,5.893986,3.989435,-19.656141,-1.556901,-33.359951,-28.276133,-2.451587,0,1,0
0.019566,-0.371335,0.912014,38.725742,-11.678534,-1.247206,-15.872936,-2.704471,-33.48592,-22.149582,-1.138327,0,1,0
