AccX,AccY,AccZ,GyroX,GyroY,GyroZ,AngleX,AngleY,AngleZ,RuheState,FernstState,TranspState
0.131451,0.627551,0.758484,51.705925,27.916761,-6.149191,48.653511,51.130554,-975.831787,39.187714,-7.60564,0,0,1
0.045269,0.750598,0.918152,49.889133,33.199203,11.346992,53.403114,53.350281,-974.68573,39.232239,-2.186043,0,0,1
0.055035,0.656848,0.78241,-5.225372,32.451111,20.492031,52.616734,55.433613,-972.616028,39.944477,-3.083681,0,0,1
0.096783,0.580676,0.679138,-10.294074,90.206841,44.171417,51.350426,63.129974,-968.154724,40.246799,-6.181827,0,0,1
-0.002094,0.649523,0.668884,-13.423846,137.031281,131.652328,49.877895,75.433304,-954.857849,44.158531,0.128696,0,0,1
-0.195698,0.688586,0.62323,-10.660487,234.313721,162.446228,48.755344,-82.645012,-938.450806,46.509228,11.898854,0,0,1
-0.366108,0.711047,0.676697,-48.141403,216.832794,114.339355,43.870068,-59.120911,-926.902527,42.743355,20.454351,0,0,1
-0.395405,0.69176,0.802429,-65.057434,134.130493,116.27829,37.307575,-44.25293,-915.158447,37.714642,20.466515,0,0,1
-0.275776,0.45885,0.947693,-100.47728,93.672485,91.194321,27.114851,-33.802631,-905.947815,24.93334,14.676805,0,0,1
-0.282856,0.322863,0.495789,-61.210106,84.603783,55.484394,21.103857,-24.241465,-900.343872,29.493887,25.551609,0,0,1
-0.47768,0.43468,1.011169,-16.049801,-2.9382,-34.164459,19.517981,-23.578241,-903.794495,21.240582,23.460936,0,0,1
-0.308735,0.397082,0.970154,27.52272,-73.884766,26.232489,22.27796,-30.091579,-901.14502,21.307022,16.410656,0,0,1
-0.211079,0.560656,1.005066,17.782261,-100.571785,3.102717,24.16511,-39.236485,-900.831665,28.631052,10.393023,0,0,1
0.215435,0.593859,0.975769,-1.378044,-61.365685,-31.095757,24.159863,-44.739342,-903.972351,30.722769,-10.680616,0,0,1
0.129498,0.604846,0.776062,17.660124,-50.587055,-13.813313,26.17569,-49.001617,-905.367493,37.551247,-7.49778,0,0,1
0.245708,0.852648,0.823914,-18.141403,1.214472,-17.569038,24.751774,-48.135529,-907.141968,44.761684,-11.707666,0,0,1
0.383892,0.619494,0.785583,7.965467,-0.739727,20.492031,25.751516,-47.66589,-905.072266,35.317848,-20.992641,0,0,1
0.232769,0.317736,1.016541,12.789895,-1.838964,13.866076,26.84133,-47.141159,-903.671814,16.944971,-12.328381,0,0,1
0.245953,0.582629,0.726746,14.957834,-18.44965,-28.133924,28.52928,-48.320312,-906.513367,37.212536,-14.791409,0,0,1
0.3065,0.734484,0.904968,-12.416211,15.580884,-86.36293,27.480742,-46.106384,-915.236023,37.550236,-14.73363,0,0,1
0.223492,0.713732,0.865906,14.896766,9.611418,-5.065222,29.177481,-44.458199,-915.74762,38.593582,-11.26392,0,0,1
0.261089,0.604113,0.870544,-9.393312,-20.525986,-38.927818,28.336418,-45.877533,-919.679321,33.611904,-13.841862,0,0,1
0.107037,0.459582,1.170349,2.179208,-19.655758,-64.576675,28.412554,-47.002827,-926.201538,21.358278,-4.86578,0,0,1
-0.002583,0.537463,0.792419,-14.553617,-56.525986,-77.584305,27.086729,-51.654625,-934.037537,34.14716,0.154536,0,0,1
0.392925,0.471057,1.222595,-23.164303,-36.251179,-54.210262,24.655067,-54.543549,-939.512756,20.143738,-16.693796,0,0,1
0.189556,0.331164,0.660828,-10.065066,26.695387,-21.950718,23.680138,-51.098034,-941.729797,25.720549,-14.383361,0,0,1
0.449078,0.793078,0.724548,10.591421,21.687756,-0.027054,25.113556,-48.383167,-941.732544,42.934212,-22.687414,0,0,1
0.465435,0.543811,0.993103,15.03417,28.710655,18.263023,26.626842,-45.020645,-939.888,26.373756,-22.346189,0,0,1
0.340435,0.781848,0.890808,28.102871,55.61142,68.339355,29.662863,-38.936321,-932.985718,39.346737,-16.025421,0,0,1
0.289166,1.043566,0.705261,35.751728,118.481644,124.782104,33.685413,-26.688883,-920.382751,53.854919,-12.929987,0,0,1
-0.051167,0.595324,0.93988,11.553253,50.680122,78.782104,34.801487,-21.086123,-912.425781,32.312035,2.633175,0,0,1
-0.124897,0.516467,0.769958,34.118141,39.565617,35.728668,38.152657,-16.594749,-908.8172,33.509251,7.672311,0,0,1
0.047222,0.468371,0.742859,33.003635,33.901497,8.827908,41.299889,-12.968844,-907.925598,32.179253,-3.077967,0,0,1
-0.015034,0.132189,1.20697,-32.034531,11.321342,9.14852,37.428108,-11.574694,-907.001587,6.249741,0.709382,0,0,1
0.368023,1.013537,0.67157,-1.973464,-20.541254,25.988214,37.542744,-13.713184,-904.37677,52.926403,-16.84057,0,0,1
0.197369,0.531115,1.093933,-10.797891,-47.777893,-29.782778,36.233879,-18.352354,-907.384827,25.538261,-9.218907,0,0,1
0.200787,0.487414,0.981873,-17.759724,-82.907669,-45.553772,34.270065,-26.399101,-911.985779,25.935875,-10.37962,0,0,1
0.092632,0.571887,0.720886,4.637223,-124.648125,-89.202629,34.807602,-38.323761,-920.995239,38.197124,-5.748463,0,0,1
0.363628,0.851672,0.618347,37.095238,-112.190109,-52.088123,38.781006,-49.04306,-926.256165,49.893417,-19.059992,0,0,1
0.853619,1.062365,0.352234,-60.126137,-79.243546,-17.278963,33.034142,-56.652367,-928.001343,49.001976,-37.332039,0,0,1
0.755718,0.669055,0.586121,-46.248272,-5.106139,-59.569038,28.495317,-56.831764,-934.017822,34.975704,-40.351883,0,0,1
0.39439,0.619494,0.598083,-51.378044,-27.793163,-78.515602,23.657022,-58.938267,-941.947876,40.850513,-24.608368,0,0,1
0.513531,0.734484,0.59198,-51.652851,-41.762627,-86.775146,18.934162,-62.46442,-950.712158,43.144005,-28.562536,0,0,1
0.564556,0.769885,0.896912,-52.553616,-51.457283,-92.958351,14.073648,-66.81897,-960.100952,35.996307,-25.530048,0,0,1
0.551617,0.534533,0.810242,-16.462013,-38.113773,-70.973618,12.734869,-69.847267,-967.269287,28.605236,-29.608673,0,0,1
0.537945,0.669543,0.66571,-0.37041,-19.472551,-53.996521,13.204208,-70.971169,-972.722961,38.03511,-29.672489,0,0,1
0.458599,0.645861,0.710388,-12.721555,-8.312245,-28.882015,12.428418,-70.885132,-975.640015,37.373699,-25.531876,0,0,1
0.375347,0.66466,0.662292,2.148674,-20.953466,-36.546139,13.215014,-71.977463,-979.331177,41.124382,-21.802868,0,0,1
0.279644,0.683459,0.589783,12.057071,-21.884766,-32.469803,15.070477,-73.048286,-982.610657,46.317829,-17.211342,0,0,1
0.4398,0.922229,0.742615,24.148674,-37.609955,-25.217894,18.097256,-75.717499,-985.157654,46.897675,-20.376823,0,0,1
1.244732,0.911975,1.462097,-2.950562,-17.121407,5.392793,17.951366,-76.614662,-984.612976,25.405035,-35.841957,0,0,1
0.645367,0.600207,0.647644,5.614323,-8.663391,-44.43927,18.813719,-76.663116,-989.101318,33.2836,-36.16227,0,0,1
0.476666,0.452746,0.358826,-5.759724,-12.846598,-33.752247,18.6112,-77.19194,-992.510315,37.192699,-39.526451,0,0,1
0.457378,0.592883,0.412537,-12.935296,2.298441,-15.4011,17.836786,-76.067482,-994.065796,43.907291,-32.343529,0,0,1
0.673931,0.852648,0.414978,1.385315,25.855694,-9.981253,18.559805,-72.694962,-995.073914,47.131813,-35.40123,0,0,1
0.750103,1.151477,0.978699,9.431116,41.199203,-5.706443,19.982897,-67.691132,-995.650269,43.039829,-26.397957,0,0,1
0.746685,0.460803,0.899353,23.034168,24.909128,28.644701,22.293461,-64.601021,-992.757141,21.514971,-36.4608,0,0,1
0.400982,0.502307,0.831726,25.950199,32.57325,12.70577,24.987076,-60.533409,-991.473877,28.546682,-22.425283,0,0,1
0.240093,0.386828,0.469666,23.812798,22.069433,-2.347665,27.56942,-57.568985,-991.710999,36.254734,-21.533831,0,0,1
0.225201,0.637072,0.706482,17.41585,0.099968,-2.607207,29.55521,-56.67408,-991.974304,40.667831,-13.318374,0,0,1
0.429791,0.865588,0.802673,35.003635,-28.373314,-25.217894,33.299793,-58.7491,-994.521301,43.551567,-20.005653,0,0,1
0.945171,0.78258,1.042419,9.263178,31.886227,41.453861,34.132286,-55.136948,-990.334473,29.080944,-35.946308,0,0,1
0.943218,0.890246,0.774353,37.308979,54.19157,39.728668,37.864693,-49.443108,-986.321899,36.110508,-38.639057,0,0,1
0.454937,0.580187,0.38324,33.812798,63.947296,68.186684,41.339893,-42.788654,-979.435059,44.285332,-33.195545,0,0,1
0.311138,0.697375,0.60199,45.736462,67.000732,66.84317,45.956532,-35.674374,-972.683899,45.822201,-18.661392,0,0,1
0.233257,0.603869,0.821472,33.263176,72.435844,44.873707,49.035114,-28.048918,-968.151672,35.266064,-12.886654,0,0,1
0.5294,0.943957,1.107849,11.476917,105.703018,41.88134,49.941456,-17.425215,-963.921631,37.552872,-19.987944,0,0,1
0.527935,0.64757,0.755554,35.156307,61.748821,64.675232,53.12421,-11.523766,-957.389404,35.090466,-27.947674,0,0,1
0.242535,0.523547,0.807068,33.751728,63.428211,65.759201,56.03949,-5.298169,-950.747742,31.850883,-14.150125,0,0,1
0.071636,0.510363,0.753601,31.629589,32.237373,40.125618,58.729149,-2.091357,-946.695068,33.987595,-4.500334,0,0,1
0.089703,0.630725,1.005798,18.316612,15.611419,19.056915,60.007332,-0.59073,-944.770325,31.989286,-4.320953,0,0,1
0.603619,0.875842,1.081482,7.110506,13.489281,24.12562,60.216316,0.287285,-942.333618,35.266495,-23.448393,0,0,1
0.768169,0.329943,0.943787,-5.271173,-30.678658,-29.462168,58.793659,-3.505754,-945.309326,15.170272,-37.535961,0,0,1
0.744732,0.5526,0.587341,-1.133769,-28.525986,-35.477436,58.110088,-7.113583,-948.892517,30.226027,-42.722088,0,0,1
0.514996,0.425646,0.491394,-10.981097,-18.9382,-32.561405,56.478539,-9.613515,-952.181213,30.878103,-38.385098,0,0,1
0.605083,0.672961,0.514343,-8.568884,-10.113773,-31.706442,55.306381,-11.133127,-955.383545,40.277851,-35.541107,0,0,1
0.599957,0.686389,0.369568,3.400582,14.359509,-32.75988,55.421806,-10.240805,-958.692322,44.247971,-37.582298,0,0,1
0.48106,0.891711,0.656921,3.293712,26.817526,-28.988886,55.591393,-7.851135,-961.620178,47.60062,-23.477299,0,0,1
0.95982,0.780383,1.364685,-11.026898,6.939662,-15.950718,53.889469,-7.635349,-963.231201,25.067284,-31.406166,0,0,1
0.587749,0.602893,0.875183,-1.66812,-4.510719,-19.874382,53.241859,-8.508007,-965.238525,29.764425,-28.944744,0,0,1
0.587261,0.48302,0.56488,-0.706288,-5.075604,0.232488,52.720287,-9.606505,-965.215027,30.65852,-38.313759,0,0,1
0.372417,0.494982,0.686707,0.454017,-4.999269,-7.492703,52.358009,-10.38414,-965.971802,32.359356,-23.746918,0,0,1
0.383648,0.57091,0.664978,-1.026899,-25.930565,-20.759878,51.941933,-13.215881,-968.068542,36.636398,-23.640827,0,0,1
0.659771,0.688342,0.843933,-12.523082,-30.373314,-12.454535,50.318035,-16.582081,-969.326477,32.723789,-31.208344,0,0,1
0.95689,0.555285,1.02533,-23.378044,-26.953468,-15.340031,47.429718,-19.705761,-970.875793,21.600195,-39.373478,0,0,1
0.830181,0.54967,1.003357,-16.538349,-10.388582,-11.492702,45.301834,-21.059237,-972.03656,22.883814,-35.966434,0,0,1
0.535259,0.304797,0.481384,-22.370411,-15.411482,-26.622473,42.64053,-23.02771,-974.725403,22.947657,-43.21146,0,0,1
0.849468,0.436877,0.548767,-8.782624,-9.655757,-33.78278,41.385693,-24.531931,-978.137451,23.363981,-50.452465,0,0,1
0.553814,0.419543,0.808289,3.125773,-7.014536,-34.225529,41.330967,-25.361689,-981.594238,23.179895,-31.305004,0,0,1
0.746441,0.496447,0.870544,-6.874228,-23.029802,-26.927816,40.29211,-27.867548,-984.313965,23.408705,-36.680157,0,0,1
0.76939,0.56383,0.687683,-9.362777,-20.663391,-15.50797,39.132572,-30.172777,-985.880249,28.651606,-40.865929,0,0,1
0.827007,0.604602,0.579529,-1.271173,-1.961101,-6.286596,38.842285,-30.656212,-986.515198,30.909168,-44.639019,0,0,1
0.752056,0.586291,0.622986,1.553254,10.130503,7.346992,38.838753,-29.866747,-985.773132,30.978664,-41.318794,0,0,1
0.724957,0.580187,0.668152,-3.56125,23.38241,10.782106,38.319008,-27.741545,-984.684143,30.476307,-39.326199,0,0,1
0.701275,0.549914,0.602478,-10.187203,15.596151,1.285923,37.159184,-26.456726,-984.55426,30.744192,-40.685963,0,0,1
0.756207,0.564807,0.916931,-8.492548,12.619052,-5.156825,36.083763,-25.380081,-985.075073,25.417683,-35.076141,0,0,1
0.868267,0.507434,0.87323,1.828063,-7.350413,-17.004152,35.990929,-26.413738,-986.79248,22.395029,-40.685795,0,0,1
0.448589,0.315539,0.857361,8.835697,18.619053,-7.813313,36.506886,-24.565592,-987.581604,18.060946,-26.152073,0,0,1
0.492779,0.443225,0.861267,4.423483,4.970197,-32.515602,36.695969,-24.121616,-990.865662,24.069105,-26.964352,0,0,1
0.553326,0.549182,0.785583,-2.782624,-2.281712,-33.965984,36.281616,-24.464964,-994.296204,29.749435,-29.99684,0,0,1
0.39732,0.537463,0.767029,-3.118502,-19.80843,-48.561405,35.885101,-26.396055,-999.200928,31.889395,-22.987621,0,0,1
0.410992,0.591662,0.677185,-3.149036,-43.213009,-72.04232,35.590836,-30.636602,-1006.477173,36.75647,-24.562307,0,0,1
0.752056,1.025988,0.934509,8.606689,-50.861866,-65.599571,36.541725,-35.627251,-1013.102722,40.540974,-28.453676,0,0,1
0.891949,0.548937,0.969421,-13.423846,-38.022171,-47.584309,34.934635,-39.451782,-1017.908752,22.621765,-38.681999,0,0,1
0.672466,0.675402,0.690125,-37.408577,-53.900032,-68.08812,31.233797,-44.694843,-1024.785645,35.027828,-34.853432,0,0,1
0.674175,0.645373,0.427185,-34.47728,-42.098507,-61.126293,27.975752,-48.789032,-1030.959351,38.959496,-41.058712,0,0,1
0.617779,0.672229,0.441833,-34.691021,-21.457283,-52.943085,24.812742,-50.687557,-1036.306641,41.511166,-37.523205,0,0,1
0.559917,0.711779,0.437195,-26.614685,-10.403849,-45.431637,22.583288,-51.380257,-1040.895264,45.056171,-33.833878,0,0,1
0.566509,0.804064,0.600281,-26.79789,7.687754,-24.286596,20.36417,-50.180683,-1043.348267,44.25016,-29.448074,0,0,1
0.876324,1.103137,0.826599,1.980735,36.161037,-15.675909,21.002562,-46.24675,-1044.931519,42.481064,-32.445038,0,0,1
0.835308,0.395861,0.826843,29.018902,43.55035,29.514933,23.827082,-41.85799,-1041.950562,18.613914,-42.339531,0,0,1
0.376812,0.50841,0.757996,38.850964,39.183937,13.637068,27.8158,-37.591072,-1040.573242,30.98945,-22.433281,0,0,1
0.335796,0.448596,0.516052,23.705925,22.054167,22.919512,30.327446,-35.179436,-1038.258423,36.077507,-26.155287,0,0,1
0.209576,0.608508,0.737488,22.454018,6.222106,6.293557,32.712166,-34.107246,-1037.622803,38.438469,-12.363328,0,0,1
0.410015,0.832873,0.749695,21.049438,-20.587055,-4.622474,35.026714,-35.864754,-1038.089722,44.265987,-20.097195,0,0,1
0.743755,1.057971,1.3349,20.728827,-16.55652,-16.59194,37.07185,-37.257992,-1039.765503,34.696327,-23.58865,0,0,1
0.868755,0.532824,0.782654,11.461651,5.229739,-21.492702,37.954842,-36.845959,-1041.936279,24.497547,-42.538269,0,0,1
0.654156,0.61925,0.512878,12.16394,27.153402,11.377527,39.13343,-34.20401,-1040.787109,36.684975,-39.130569,0,0,1
0.441998,0.450061,0.412781,19.232643,39.87096,20.995848,40.98753,-30.291416,-1038.666504,36.655945,-35.895794,0,0,1
0.361675,0.682727,0.538757,14.270811,31.87096,22.782106,42.509411,-26.982613,-1036.365479,46.455231,-22.580618,0,0,1
0.201275,0.704455,0.752625,22.22501,65.565613,5.713404,44.701466,-20.174232,-1035.788452,42.120575,-11.047836,0,0,1
1.042828,0.950793,1.337585,8.835697,29.290808,7.469129,45.267487,-17.520224,-1035.034058,29.274502,-32.434006,0,0,1
0.543316,0.6776,0.698181,36.331879,55.764091,39.667603,48.70726,-12.233896,-1031.027588,37.449619,-29.180347,0,0,1
0.259625,0.436145,0.671082,20.148674,48.878593,52.980579,50.35186,-7.510661,-1025.676514,31.221447,-17.972317,0,0,1
0.168072,0.450793,0.624695,22.408215,18.970196,22.950047,52.260197,-5.728928,-1023.358582,34.870365,-12.307502,0,0,1
0.193707,0.741564,0.853455,15.62959,6.069434,9.530199,53.567535,-5.208036,-1022.396057,40.276146,-9.721962,0,0,1
0.516949,1.102893,0.868347,26.560886,23.107601,7.453862,56.075203,-3.221033,-1021.643188,47.501114,-20.217413,0,0,1
0.694195,0.375354,1.221863,-9.210105,-14.846598,-13.904917,54.341175,-5.196252,-1023.047607,14.954561,-28.506216,0,0,1
0.858746,0.722277,0.622742,-2.278808,-0.23591,-16.256062,53.71381,-5.955711,-1024.689453,34.250698,-42.001816,0,0,1
0.474224,0.413928,0.449646,-0.996365,3.382411,-14.775146,53.187916,-6.257994,-1026.181763,32.349987,-37.809311,0,0,1
0.525738,0.614611,0.40155,7.14104,15.840426,-10.897283,53.68885,-5.277084,-1027.282349,42.893726,-35.606781,0,0,1
0.432476,0.649768,0.559021,7.660124,53.687756,-2.683542,54.225143,-0.392994,-1027.553345,42.593353,-26.77334,0,0,1
0.395611,0.967639,0.849304,9.370048,2.420579,-51.431637,54.986565,-0.487159,-1032.747925,45.923939,-17.080721,0,0,1
0.89854,0.559436,1.124451,0.362414,-4.541253,-18.164459,54.347492,-1.638538,-1034.58252,21.239559,-35.581406,0,0,1
0.360943,0.700793,0.940369,11.095239,-22.724459,-46.668278,55.055313,-4.197167,-1039.296021,34.82795,-17.106686,0,0,1
0.365337,0.49425,0.612488,-12.721555,-41.304611,-43.324764,53.389488,-8.699563,-1043.671875,34.723186,-24.900469,0,0,1
0.249371,0.698107,0.677429,-24.080334,-67.167206,-59.523239,50.819054,-15.461349,-1049.683716,44.041283,-14.378336,0,0,1
0.256939,0.759875,0.686462,-29.805523,-72.480186,-80.866753,47.77317,-22.607916,-1057.851318,46.032421,-14.085262,0,0,1
0.494488,0.999865,1.018494,-42.294075,-100.38858,-96.836212,43.460411,-32.474403,-1067.631836,41.448601,-19.10918,0,0,1
0.667095,0.878039,0.741638,-60.904762,-94.46492,-102.469803,37.389946,-41.777687,-1077.981323,41.354984,-30.131584,0,0,1
0.651958,0.831896,0.434509,-65.607048,-106.129036,-99.492706,31.082693,-52.142502,-1088.030029,46.716602,-34.785957,0,0,1
0.562115,0.718371,0.38324,-69.805527,-79.42675,-91.340034,24.482849,-59.653728,-1097.255371,46.558014,-34.620609,0,0,1
0.641216,0.791613,0.239929,-51.973461,-60.190109,-90.591942,19.831755,-65.17392,-1106.405151,49.144794,-37.782436,0,0,1
0.676128,0.860217,0.32489,-16.0956,-15.823696,-78.836212,18.820187,-66.163208,-1114.367554,48.910576,-36.327106,0,0,1
0.752789,1.02257,0.914246,-8.171937,-32.587055,-80.469803,18.451103,-68.640572,-1122.494995,40.808907,-28.758389,0,0,1
0.376812,0.484729,1.032898,-25.958195,-38.510719,-62.866749,15.988563,-71.445068,-1128.844482,23.791195,-18.275928,0,0,1
0.34605,0.596545,0.758728,-38.446747,-53.594688,-63.156826,12.574895,-75.715469,-1135.223267,35.578114,-19.724882,0,0,1
0.272564,0.680285,0.747009,-47.011631,-70.78553,-84.256065,8.481132,-81.50946,-1143.733154,40.547287,-15.097363,0,0,1
0.398541,0.779162,0.547058,-36.996365,-79.228279,-93.004158,5.63001,-88.175591,-1153.126587,49.020077,-22.715193,0,0,1
0.555279,0.707141,0.293884,-15.255906,-62.495453,-69.126289,4.974996,86.683182,-1160.108398,48.380764,-35.946514,0,0,1
0.855572,1.216662,0.870544,12.454018,-39.854229,-26.958351,7.006346,84.009445,-1162.831177,44.907562,-29.764967,0,0,1
0.662945,0.351916,0.92157,2.9273,-22.61759,-19.843847,7.500422,83.01252,-1164.835449,17.222944,-33.902405,0,0,1
0.602154,0.598498,0.845154,3.583788,-25.472551,-39.523239,8.304612,81.827477,-1168.827271,29.97378,-30.175831,0,0,1
0.594341,0.504992,0.410339,-4.477281,-23.25881,-30.500336,8.394591,80.640594,-1171.907837,34.961628,-42.408691,0,0,1
0.542583,0.712023,0.436707,-0.187204,13.840425,-12.668276,9.120798,83.337555,-1173.187378,45.631519,-33.007107,0,0,1
0.539654,0.746447,0.591003,2.255544,32.9702,0.858442,10.021743,87.943283,-1173.100708,43.005257,-29.545073,0,0,1
0.586529,1.037951,0.976013,14.255544,24.054167,-8.53087,12.079322,-88.282211,-1173.96228,42.350109,-22.375402,0,0,1
0.916119,0.526477,0.778015,25.782261,56.405312,48.904243,14.862765,-81.819191,-1169.022949,23.655067,-44.280937,0,0,1
0.342388,0.526965,0.776794,32.423481,70.451111,58.232483,18.411392,-73.610352,-1163.141479,31.830294,-20.039886,0,0,1
0.199566,0.454211,0.537781,36.454018,40.298443,50.339355,22.418854,-68.465973,-1158.057251,38.373543,-15.828192,0,0,1
0.136333,0.62218,0.863464,31.644855,38.680122,36.079815,25.811508,-63.414093,-1154.413208,35.441166,-7.299836,0,0,1
0.302105,0.711779,1.018738,19.766994,0.390044,9.240122,27.928141,-62.38047,-1153.47998,33.816319,-13.663107,0,0,1
0.731792,0.604113,1.131775,22.683025,26.68012,-3.828581,30.097618,-59.086086,-1153.866699,24.143726,-29.701061,0,0,1
0.73521,0.687121,0.667908,22.423481,0.130502,-9.859115,32.408619,-58.641388,-1154.862427,34.673908,-37.49707,0,0,1
0.605816,0.569934,0.497742,19.858597,22.161037,13.820274,34.446316,-56.048687,-1153.466553,36.013206,-38.681431,0,0,1
0.359722,0.416369,0.553162,4.133407,14.649587,-2.164458,34.811565,-54.026794,-1153.685181,32.252583,-27.454836,0,0,1
0.518169,0.774035,0.518982,12.194475,29.916761,5.972946,36.253246,-50.566601,-1153.081909,46.545017,-29.075119,0,0,1
0.362408,0.810168,0.711365,11.171575,40.283173,-6.408733,37.542355,-45.939632,-1153.729248,45.420586,-18.579447,0,0,1
0.873882,1.026965,1.225037,3.064704,31.428213,5.942412,37.781094,-42.48336,-1153.129028,34.312172,-28.664143,0,0,1
0.659283,0.521105,0.59198,29.980736,41.077068,38.705769,40.602177,-38.365765,-1149.219727,30.460571,-39.89389,0,0,1
0.406841,0.555529,0.770691,15.660124,60.90913,48.247753,41.990482,-32.033314,-1144.34668,32.51556,-23.182335,0,0,1
0.174664,0.491564,0.719421,17.934933,38.756458,23.759207,43.597546,-27.783237,-1141.947021,33.583714,-11.335164,0,0,1
0.37022,0.599719,0.797546,17.431116,9.397678,9.576,45.136848,-26.7045,-1140.979858,34.296032,-20.355396,0,0,1
0.706402,0.909533,0.987244,34.576153,-8.12904,20.125618,48.393299,-27.530128,-1138.947144,36.842014,-27.755278,0,0,1
0.368267,0.379504,0.935242,25.705925,29.336609,20.965313,50.383503,-24.4767,-1136.82959,20.684776,-20.045576,0,0,1
0.570171,0.682971,0.783875,0.973101,2.512182,-6.714077,50.175518,-24.313332,-1137.50769,35.168427,-28.741116,0,0,1
0.547222,0.645129,0.528503,2.392948,7.260273,-7.233161,50.214821,-23.773872,-1138.238281,40.297844,-33.271469,0,0,1
0.548443,0.675158,0.566589,-1.225372,16.25264,0.217221,49.900639,-22.327543,-1138.216309,40.570168,-31.891615,0,0,1
0.383404,0.768664,0.794128,6.255544,16.176304,-16.362932,50.343349,-20.662502,-1139.869019,41.0774,-19.131992,0,0,1
0.564312,0.546252,0.838562,-9.881861,-9.793161,-20.04232,48.926144,-21.806925,-1141.893311,28.388441,-29.417236,0,0,1
0.659527,0.67052,0.722839,-4.843693,4.557983,2.553099,48.156609,-21.59523,-1141.635498,34.420845,-33.779621,0,0,1
0.477154,0.641223,0.803406,-2.355144,8.741189,7.346992,47.649544,-20.796129,-1140.893433,34.458965,-24.900343,0,0,1
0.42271,0.563098,0.611755,7.812796,-3.075604,8.583633,48.212574,-21.223602,-1140.026489,37.135452,-26.948608,0,0,1
0.28355,0.563342,0.750427,16.179207,4.099968,1.530198,49.551296,-20.729591,-1139.871948,35.077946,-16.813801,0,0,1
0.613384,0.790881,0.632507,35.156307,-7.075604,4.751572,52.878281,-21.639402,-1139.39209,41.911926,-31.202991,0,0,1
0.826519,0.697619,1.105652,29.660126,39.153404,22.293558,55.292683,-17.977242,-1137.140381,26.810299,-32.301651,0,0,1
0.731548,0.560656,0.666199,8.820429,10.481647,10.140886,55.650631,-17.380938,-1136.116211,29.537724,-40.03574,0,0,1
0.588238,0.565051,0.523132,17.553253,25.993097,11.820274,56.988449,-15.208055,-1134.922363,35.670559,-37.376682,0,0,1
0.602154,0.628771,0.565857,28.102871,36.664856,19.514931,59.375683,-11.983708,-1132.951416,37.269024,-35.445141,0,0,1
0.425884,0.64635,0.536804,33.812798,51.443478,13.08745,62.401512,-7.189757,-1131.629639,43.327633,-26.879894,0,0,1
0.49815,0.77135,0.809265,15.217376,42.695389,5.011114,63.441021,-3.300305,-1131.123535,39.066017,-24.01672,0,0,1
0.840923,1.079211,0.803894,22.942566,58.054165,7.835541,65.300079,1.871883,-1130.332153,42.851166,-32.000885,0,0,1
0.514996,0.364123,0.823914,17.629589,31.336609,22.201954,66.149925,4.340997,-1128.089722,20.543839,-29.757324,0,0,1
0.443218,0.643664,0.867859,12.606689,16.68012,8.659969,66.743645,5.459111,-1127.215088,33.445442,-22.303289,0,0,1
0.326763,0.448596,0.614197,8.759361,3.428212,-3.431634,66.93206,5.224262,-1127.561646,32.814049,-23.249617,0,0,1
0.176373,0.6776,0.712341,9.446383,-21.945833,-33.370567,67.382782,2.744168,-1130.932129,42.717762,-10.17048,0,0,1
0.398541,0.671984,0.806335,0.240277,-35.48782,-45.950718,66.794182,-1.239128,-1135.57312,36.763607,-20.791433,0,0,1
0.945904,1.064318,1.045837,-18.324608,-60.816063,-41.950718,64.385406,-7.881343,-1139.810181,37.043968,-32.371212,0,0,1
0.677837,0.690295,0.662048,-30.523083,-43.121407,-47.187359,60.798016,-12.698372,-1144.57605,36.07473,-35.324978,0,0,1
0.440289,0.513293,0.533875,-33.347507,-42.006901,-60.576675,57.012638,-17.216877,-1150.694336,36.565937,-30.731514,0,0,1
0.447369,0.669787,0.437683,-38.294075,-32.709194,-71.752243,53.02087,-20.694315,-1157.941284,46.941631,-29.210938,0,0,1
0.524761,0.731066,0.805603,-45.637585,-19.991634,-83.431633,48.188221,-22.774231,-1166.36792,37.248829,-25.751558,0,0,1
0.694683,0.760607,1.032898,-42.889492,-102.098503,-97.172096,43.607784,-32.993225,-1176.182251,31.426619,-28.438433,0,0,1
0.247173,0.690295,0.770691,-51.77499,-72.754997,-80.68354,38.420151,-39.803375,-1184.331299,40.460621,-13.436064,0,0,1
0.131207,0.569934,0.556824,-53.897125,-126.922935,-128.103394,33.214863,-51.757164,-1197.269775,44.892647,-9.350897,0,0,1
0.851665,1.022815,0.569031,-72.75209,-123.594688,-104.530869,26.248747,-63.676247,-1207.827393,44.959248,-36.041187,0,0,1
0.78355,0.909533,0.326355,-54.523083,-47.350414,-61.187359,21.26664,-67.870216,-1214.007324,46.978275,-39.037457,0,0,1
0.591167,0.665881,0.51825,-49.347507,-62.174843,-71.126289,16.762178,-73.367195,-1221.19104,40.264423,-35.015491,0,0,1
0.654888,0.742785,0.336853,-46.065067,-27.045071,-61.828583,12.772327,-75.352028,-1227.435669,45.245647,-38.76289,0,0,1
0.602642,0.75426,0.491394,-28.15667,-19.304613,-69.019417,10.612483,-76.431763,-1234.406616,44.12746,-33.800209,0,0,1
0.845562,0.917834,0.758972,-21.530716,-50.77026,-77.263695,9.047742,-80.635841,-1242.210205,38.930946,-35.373436,0,0,1
0.92857,0.535266,0.743591,-10.797891,-21.991634,-38.027054,8.28252,-82.107536,-1246.050903,24.225403,-45.38393,0,0,1
0.468121,0.576281,0.884216,-9.652853,-18.434383,-54.194996,7.760268,-82.768394,-1251.524658,29.941957,-23.918922,0,0,1
0.533062,0.494494,0.524353,-5.469646,-0.800796,-34.10339,7.733232,-81.92202,-1254.969116,33.477722,-36.486652,0,0,1
0.409771,0.596301,0.65741,-0.874227,-11.655758,-37.248428,8.243787,-81.932907,-1258.731201,37.587532,-24.781958,0,0,1
0.307476,0.63927,0.639587,-4.553617,-34.816063,-47.630108,8.468452,-84.115929,-1263.54187,42.012981,-18.779055,0,0,1
0.506695,0.918322,0.829529,0.637223,-37.762627,-59.889652,9.2296,-86.616684,-1269.590698,43.372349,-22.266481,0,0,1
0.990582,0.624133,0.98822,-32.584148,-44.38858,-46.011787,6.300619,89.916435,-1274.237915,24.039549,-40.281662,0,0,1
0.74229,0.750842,0.683533,-31.072701,-42.831329,-52.240795,3.832087,86.755287,-1279.514282,36.652805,-36.168774,0,0,1
0.526226,0.549914,0.41571,-26.41621,-27.594688,-51.278965,1.927812,85.141731,-1284.693481,39.352108,-37.356369,0,0,1
0.569927,0.629992,0.364685,-22.553616,-14.281712,-43.416367,0.516022,84.864113,-1289.078491,42.956284,-38.058811,0,0,1
0.650005,0.711047,0.47406,-5.652853,15.458747,-24.790413,0.775601,87.551796,-1291.582275,41.471008,-37.256863,0,0,1
0.479839,0.822375,0.833679,-5.286441,10.802258,-34.698811,1.047408,-89.97567,-1295.086914,40.528507,-22.2817,0,0,1
1.086285,0.767443,0.896667,6.805162,-8.434383,-20.515604,2.271705,-89.863518,-1297.158936,28.583511,-42.626091,0,0,1
0.38023,0.497912,0.887146,1.84333,-12.953466,-22.179726,2.954478,-89.758255,-1299.399048,27.287691,-20.493517,0,0,1
0.527203,0.554553,0.639343,3.476918,-14.480185,-17.660643,3.915345,89.965271,-1301.182739,33.7906,-31.91968,0,0,1
0.438335,0.620959,0.625671,6.255544,-15.976368,-7.599573,5.238321,89.65583,-1301.950317,39.105541,-26.439177,0,0,1
0.371197,0.563342,0.704773,-4.721556,-32.220642,-23.965984,5.371594,87.826256,-1304.37085,35.268986,-22.362822,0,0,1
0.907574,1.089465,0.954529,8.255544,-49.167206,-42.958355,6.873214,84.161751,-1308.709595,39.596004,-32.070232,0,0,1
0.63731,0.567004,0.774597,-37.423843,-44.327515,-49.660645,3.621095,81.019363,-1313.725342,29.477922,-33.580292,0,0,1
0.723492,0.668566,0.518494,-38.278805,-40.739727,-47.660645,0.498052,78.155861,-1318.539062,36.910755,-40.534775,0,0,1
0.541119,0.574572,0.37738,-28.553616,-23.64049,-47.813316,-1.51707,77.088631,-1323.368164,41.053871,-38.20879,0,0,1
0.638775,0.757678,0.352722,-16.141403,-3.53362,-44.469803,-2.162843,78.049278,-1327.859619,46.078037,-37.390957,0,0,1
0.594097,0.773303,0.724548,-14.568883,15.183937,-31.477436,-2.770945,81.005669,-1331.038818,39.533493,-29.276161,0,0,1
0.593121,1.027941,0.929871,-6.721556,-16.61759,-44.149193,-2.521135,80.877419,-1335.497925,42.984547,-23.166109,0,0,1
0.886089,0.467639,0.75116,7.476918,17.199203,9.484398,-1.292083,83.661438,-1334.540039,21.928211,-45.040695,0,0,1
0.296001,0.532336,0.931091,10.408216,15.092335,-13.355298,0.335648,86.773476,-1335.888916,28.584311,-15.428723,0,0,1
0.378765,0.548693,0.695496,1.62959,-11.304613,-15.141558,1.184548,87.056084,-1337.418213,34.715866,-23.149584,0,0,1
0.312603,0.61217,0.731873,-7.316976,-18.678658,-28.011786,1.187982,86.703346,-1340.247437,37.567997,-18.140188,0,0,1
0.271099,0.62633,0.674988,-6.171937,-45.472549,-54.530872,1.367932,83.740303,-1345.755005,40.7304,-16.405092,0,0,1
0.561382,1.220568,0.805847,3.828063,-11.335146,-29.156824,2.743048,84.123581,-1348.699829,51.178688,-20.998144,0,0,1
0.787212,0.551135,1.042908,-11.698655,-38.754993,-32.653008,1.987643,81.530785,-1351.997803,22.869484,-33.71785,0,0,1
0.633404,0.601672,0.486023,-14.339875,-35.121407,-37.431633,1.268569,79.237549,-1355.778442,37.002087,-39.315121,0,0,1
0.545269,0.57799,0.492615,-11.622319,-18.052704,-28.836214,0.856559,78.75238,-1358.690918,38.186966,-35.678074,0,0,1
0.544048,0.660021,0.534119,-11.057433,-3.182475,-31.72171,0.562618,79.809334,-1361.894775,40.882816,-32.650196,0,0,1
0.55772,0.800158,0.428894,-6.080334,15.565617,-19.828581,0.923043,82.722557,-1363.897461,48.675453,-31.563507,0,0,1
0.633648,1.063098,1.03656,-7.576517,35.199203,-9.965985,0.978411,87.689911,-1364.904053,41.187683,-23.110666,0,0,1
0.924175,0.617297,0.787048,17.52272,19.764091,2.934778,3.23233,-89.362366,-1364.607666,26.954477,-42.736202,0,0,1
0.218853,0.411242,0.956238,10.820429,5.214472,-17.385832,4.69358,-87.296463,-1366.363647,22.744558,-11.873496,0,0,1
0.457867,0.582873,0.627869,4.301345,-16.480185,-15.187359,5.762909,-87.744179,-1367.897583,36.8727,-28.122044,0,0,1
0.355328,0.654162,0.614685,6.377681,-12.205376,-18.10339,7.132037,-87.629303,-1369.726074,42.656208,-21.595861,0,0,1
0.323345,0.701281,0.847351,-5.225372,-20.23591,-20.882015,7.226435,-88.207306,-1371.835205,37.712322,-16.381996,0,0,1
0.820171,1.149279,0.98822,12.316612,-22.693926,-34.668274,9.137521,-89.257767,-1375.33667,41.82579,-28.418186,0,0,1
0.59605,0.464953,0.649109,-22.920029,-34.44965,-33.156826,7.242468,88.382729,-1378.685547,27.81616,-36.74165,0,0,1
0.687847,0.659289,0.549255,-5.545982,-18.693926,-25.355297,7.285334,87.590439,-1381.24646,36.832893,-38.715275,0,0,1
0.481792,0.624377,0.521912,-11.423846,-11.671024,-22.347664,6.835232,87.670883,-1383.50354,41.316818,-30.627333,0,0,1
0.597759,0.734973,0.318054,-1.042166,14.283175,-14.59194,7.542305,-89.803543,-1384.977295,47.346592,-36.738255,0,0,1
0.646343,0.841906,0.816589,8.652491,10.267906,-3.660642,9.026933,-87.568321,-1385.347046,38.95253,-28.858206,0,0,1
1.082623,0.75841,1.042664,20.591423,33.886227,30.690504,11.42002,-83.26329,-1382.247314,26.77433,-40.019783,0,0,1
0.365093,0.475451,0.723572,20.408215,55.382412,53.148518,13.819577,-76.573563,-1376.879272,30.397673,-22.864328,0,0,1
0.371441,0.466418,0.733337,24.240276,46.176304,48.186684,16.533892,-70.934387,-1372.012451,29.570137,-23.141245,0,0,1
0.300884,0.608996,0.634705,43.965469,41.855694,44.079815,21.373426,-65.750504,-1367.560425,40.925556,-18.883909,0,0,1
0.144146,0.565539,0.788025,50.087605,33.825157,31.041647,26.608034,-61.256538,-1364.425171,35.220299,-8.452896,0,0,1
0.671246,1.080676,0.97699,60.805164,-9.548887,6.553099,32.941467,-61.471321,-1363.763306,42.354973,-24.738169,0,0,1
0.63023,0.472766,0.683289,39.751728,90.817528,54.247753,36.756413,-51.996376,-1358.284302,26.957586,-37.180065,0,0,1
0.653179,0.707385,0.646423,48.423485,86.466377,62.446228,41.565994,-43.083599,-1351.977173,37.58757,-34.279621,0,0,1
0.513775,0.775988,0.58905,53.629589,90.435844,79.041649,46.938778,-33.826694,-1343.994019,44.792492,-27.805424,0,0,1
0.358501,0.865344,0.561951,60.728828,105.901497,96.537827,53.058807,-23.051229,-1334.243652,52.39323,-19.159935,0,0,1
0.072369,0.698596,0.81073,41.370049,104.64959,78.84317,56.905212,-12.30936,-1326.280518,40.638657,-3.868559,0,0,1
0.327007,0.768176,0.716003,34.133408,58.710655,33.408058,60.031658,-6.597923,-1322.90625,44.301296,-17.296564,0,0,1
0.785992,0.722033,1.207214,32.118141,74.099968,45.408058,62.5425,0.284555,-1318.320068,26.621162,-29.194872,0,0,1
0.44688,0.607531,0.562195,34.652489,85.351875,79.728668,65.526146,8.159719,-1310.267456,40.229424,-28.363663,0,0,1
0.314068,0.564562,0.738953,43.415852,85.260277,87.301186,69.215172,16.062359,-1301.450073,35.112267,-18.661392,0,0,1
0.125103,0.656604,0.746765,51.675392,75.977829,60.324089,73.76432,23.117985,-1295.3573,40.931149,-7.170731,0,0,1
0.131939,0.635607,0.773376,50.850964,57.794624,55.94241,78.102524,28.225971,-1289.707153,39.01284,-7.508314,0,0,1
0.289166,0.859973,0.980652,47.095238,17.962563,45.789738,82.003334,29.189383,-1285.082397,40.068336,-12.500268,0,0,1
0.636333,0.458117,1.30365,27.950199,25.214472,14.324091,83.480293,30.606792,-1283.63562,17.526037,-24.726551,0,0,1
0.682476,0.77257,0.614685,30.377682,29.412945,27.911879,85.618843,32.212845,-1280.816528,40.068439,-34.655167,0,0,1
0.477886,0.637561,0.638611,15.965467,43.21447,40.782104,86.259453,35.287865,-1276.69751,38.636318,-27.904734,0,0,1
0.392681,0.59801,0.612,18.041803,40.557983,42.721035,87.108719,38.103508,-1272.38269,39.434093,-24.651356,0,0,1
0.349712,0.663439,0.666199,22.744095,37.779358,31.530199,88.445847,40.672783,-1269.19812,41.404354,-20.402988,0,0,1
0.382183,0.760119,0.685242,18.347147,54.267906,11.041649,89.374763,44.821209,-1268.082886,44.091515,-20.477962,0,0,1
0.713726,0.670275,1.178894,24.240276,51.031265,13.408062,90.50531,48.4207,-1266.728638,25.936979,-27.757841,0,0,1
0.409771,0.479602,0.69696,28.988369,52.206837,25.377527,92.178009,52.102867,-1264.165527,30.676504,-25.842951,0,0,1
0.351421,0.436145,0.848083,23.400581,35.382408,23.835543,93.158882,54.15839,-1261.758179,25.412287,-20.228718,0,0,1
0.213238,0.588977,0.804138,17.629589,4.878594,-4.149191,93.74662,53.316601,-1262.177246,35.297104,-12.075315,0,0,1
0.219585,0.591906,0.706482,8.454018,-22.648123,-21.034687,93.481712,49.740543,-1264.301758,38.662155,-13.40079,0,0,1
0.22813,0.779162,0.964294,-2.431479,-43.548885,-50.943085,92.134972,44.226738,-1269.447021,38.178249,-10.426615,0,0,1
0.937847,0.664416,0.968201,-23.942928,-71.319878,-62.042324,88.447182,35.510689,-1275.713257,26.239077,-38.613598,0,0,1
0.61021,0.721057,0.653015,-48.171936,-84.480186,-69.202629,82.688095,25.79665,-1282.702759,38.895844,-32.098747,0,0,1
0.474468,0.616809,0.371033,-52.278805,-56.77026,-65.431633,76.773399,18.993771,-1289.311401,45.681049,-33.391392,0,0,1
0.61729,0.747424,0.436951,-48.996365,-44.678658,-67.767509,71.281517,13.481833,-1296.155884,44.662209,-35.488522,0,0,1
0.58189,0.77965,0.313171,-34.294075,-23.045071,-54.240795,67.455788,10.237096,-1301.634155,49.716232,-34.705074,0,0,1
0.64732,0.97423,0.887146,-28.019264,-12.785528,-65.859116,64.164856,8.243569,-1308.285889,41.576645,-26.163746,0,0,1
1.026226,0.569445,0.71698,-10.996364,-21.075605,-48.698811,62.28233,5.027424,-1313.204468,24.45949,-48.26054,0,0,1
0.479107,0.607043,0.840271,-7.286441,-17.594688,-43.675911,60.95771,2.689238,-1317.615723,32.111889,-24.805773,0,0,1
0.454937,0.512316,0.64325,-15.103234,-26.541252,-35.614841,58.904324,-0.570648,-1321.212769,33.034168,-28.952448,0,0,1
0.429058,0.649035,0.570984,-10.950562,-32.174843,-35.950718,57.487598,-4.271839,-1324.84375,42.26236,-26.396954,0,0,1
0.455181,0.723254,0.518494,7.476918,-22.846598,-36.927818,58.004913,-6.989548,-1328.573486,46.350163,-27.089462,0,0,1
0.936626,1.156115,1.142517,15.400582,-41.442017,-40.11866,59.130062,-11.550734,-1332.625488,38.044994,-29.95232,0,0,1
0.582134,0.426867,0.717224,-25.271175,-45.732094,-49.767513,55.942162,-16.544172,-1337.651978,24.802074,-34.894478,0,0,1
0.637554,0.662707,0.671814,-26.858959,-46.78553,-56.256062,52.876514,-21.524986,-1343.333862,35.584755,-34.043385,0,0,1
0.490093,0.555041,0.332214,-24.171936,-32.877132,-60.362934,50.289463,-25.091646,-1349.430542,43.150677,-37.149078,0,0,1
0.767193,0.913684,0.36908,-10.507815,-14.892399,-45.248428,49.184059,-26.821915,-1354.00061,47.022453,-37.902542,0,0,1
0.444195,0.723742,0.638611,-5.637586,15.733556,-36.43927,48.501057,-25.222414,-1357.68103,42.934376,-24.712185,0,0,1
1.056255,1.105334,1.040955,-0.553617,3.687754,-6.637741,48.210213,-25.049452,-1358.35144,36.698677,-34.825008,0,0,1
0.449078,0.459094,0.723816,16.270811,52.970196,36.110348,49.422955,-19.8585,-1354.704346,28.323009,-27.651396,0,0,1
0.315289,0.463,0.852234,10.041803,19.672487,22.76684,49.968433,-17.874311,-1352.404907,27.00008,-18.008266,0,0,1
0.399761,0.497424,0.560486,15.721192,26.512182,20.644703,51.242138,-15.454206,-1350.319824,35.849422,-28.077862,0,0,1
0.198833,0.667346,0.716003,33.018902,29.107601,18.247755,54.324017,-12.493713,-1348.476807,41.925678,-11.483043,0,0,1
0.72398,1.077502,1.004578,37.629589,21.748823,28.782106,57.782688,-10.614575,-1345.569824,41.028625,-26.171738,0,0,1
0.682964,0.489123,0.821716,17.583788,12.832792,17.377527,58.859413,-9.842776,-1343.814697,24.597025,-35.534184,0,0,1
0.684429,0.696398,0.715027,20.683025,33.199203,22.06455,60.432014,-7.048648,-1341.586182,35.129219,-34.439274,0,0,1
0.416363,0.539904,0.544373,25.52272,37.794624,31.896612,62.514217,-3.736849,-1338.364624,38.230446,-28.504353,0,0,1
0.428082,0.64757,0.569031,-4.233006,43.21447,29.713404,61.690628,0.087095,-1335.363525,42.283825,-26.408127,0,0,1
0.296978,0.692248,0.771179,11.507452,33.687752,-4.820947,62.394871,3.099948,-1335.850464,39.95229,-15.990947,0,0,1
0.884869,0.892443,1.366638,-1.210105,-0.419116,-16.546139,61.601788,2.427201,-1337.521606,28.729435,-28.463207,0,0,1
0.448833,0.416613,0.672058,11.492186,14.542716,1.102717,62.052681,3.226486,-1337.410278,27.271646,-29.580572,0,0,1
0.510113,0.503771,0.685974,19.614323,14.695388,16.156153,63.363277,3.997764,-1335.778564,30.511141,-30.937096,0,0,1
0.245953,0.60924,0.768982,10.102873,9.687754,11.301191,63.836765,4.595226,-1334.637085,37.038582,-14.073837,0,0,1
0.104839,0.578723,0.700378,9.24791,-24.083239,-19.340031,64.260498,1.987915,-1336.590454,39.255527,-6.582412,0,0,1
0.359478,0.798449,0.720642,5.079971,-20.174841,-31.61484,64.373192,-0.418363,-1339.783569,44.754337,-18.480743,0,0,1
1.205914,1.049914,1.404968,-15.912395,-33.075603,-25.202625,62.10183,-4.374029,-1342.328979,29.5555,-34.510509,0,0,1
0.59605,0.420031,0.562927,-18.15667,-35.350414,-34.75988,59.605186,-8.591913,-1345.839722,27.127132,-40.319138,0,0,1
0.554546,0.52257,0.509216,-18.187202,-33.029804,-40.988888,57.308205,-12.434078,-1349.979614,34.76445,-37.235661,0,0,1
0.520367,0.695178,0.433777,-19.103233,-20.571787,-33.935452,55.185997,-14.869944,-1353.407104,45.73978,-32.417572,0,0,1
0.611431,0.633166,0.280701,-11.56125,5.718288,-26.790413,53.803192,-14.835315,-1356.112915,43.262295,-41.438324,0,0,1
0.525249,0.978381,0.829529,-10.37041,16.435844,-29.263695,52.598644,-13.357155,-1359.068604,44.898964,-22.268312,0,0,1
1.259624,0.850939,1.089783,9.904399,1.519815,-8.194993,53.068245,-13.786263,-1359.89624,27.061827,-42.334183,0,0,1
0.38731,0.445178,0.732605,21.705925,30.496914,6.354625,54.720238,-10.978223,-1359.254395,28.245125,-24.313475,0,0,1
0.416607,0.47716,0.685486,19.797527,16.145769,2.034015,56.200317,-9.690756,-1359.04895,30.746212,-26.510303,0,0,1
0.36314,0.595324,0.529968,23.141041,7.245006,-8.882016,58.223209,-9.269718,-1359.946045,42.819798,-24.494452,0,0,1
0.200787,0.646105,0.78656,11.721193,-4.449651,-17.645374,58.989243,-9.747923,-1361.728271,38.516594,-11.158622,0,0,1
0.427105,1.031604,0.777771,10.22501,-26.663391,-25.462168,59.807526,-12.557974,-1364.299927,49.299797,-18.293344,0,0,1
1.089214,0.738146,1.22821,-8.950562,-14.174841,-5.217894,58.209667,-14.45462,-1364.826904,24.210945,-37.239101,0,0,1
0.662457,0.668078,0.620789,-2.233006,7.367144,-1.049955,57.551418,-14.156216,-1364.932983,36.348408,-35.994427,0,0,1
0.47105,0.504748,0.462585,4.087605,5.336609,0.476763,57.552963,-14.035439,-1364.884888,37.398983,-34.528309,0,0,1
0.409039,0.592395,0.443787,12.744093,14.878593,-1.217894,58.552639,-12.86056,-1365.007935,44.466106,-28.92568,0,0,1
0.345562,0.690295,0.662048,2.621956,30.115234,-16.256062,58.496067,-10.019832,-1366.64978,42.74807,-19.864426,0,0,1
0.539898,0.916369,1.07074,-6.935296,18.435844,-17.095757,57.387417,-8.413879,-1368.376465,37.386299,-20.961231,0,0,1
0.736919,0.56676,0.855164,7.202109,9.76409,-3.462168,57.485718,-7.992943,-1368.726196,26.659302,-35.689602,0,0,1
0.537945,0.638781,0.697693,17.568521,2.344243,-5.553771,58.793827,-8.193574,-1369.287109,35.944527,-29.626175,0,0,1
0.297955,0.516467,0.550964,8.560887,11.0618,8.476763,59.255447,-7.365436,-1368.430908,39.506954,-21.531553,0,0,1
0.228375,0.647082,0.593445,9.660124,-11.793161,-11.309497,59.936512,-8.677012,-1369.57312,45.500671,-14.579922,0,0,1
0.502789,0.921008,0.800476,9.934933,11.55035,-13.553772,60.606239,-7.808087,-1370.942017,44.254814,-22.39344,0,0,1
0.823345,0.818957,1.487732,-13.057433,0.099968,-14.256062,58.616032,-8.159332,-1372.381836,25.717133,-25.865086,0,0,1
0.67857,0.715441,0.486511,-20.553616,-35.564156,-17.889648,56.221153,-12.27843,-1374.188721,40.592018,-38.10722,0,0,1
0.474957,0.464465,0.418884,-19.484913,-17.854231,-18.759878,53.893257,-14.544318,-1376.083496,36.257195,-37.212307,0,0,1
0.486187,0.685412,0.392517,-9.530716,-5.671024,-26.179726,52.824963,-15.447034,-1378.727661,47.646046,-31.614176,0,0,1
0.56358,0.634631,0.380066,0.301345,14.451113,-10.439268,52.658966,-14.453775,-1379.781982,43.033592,-37.302608,0,0,1
0.449566,1.047473,0.891541,12.255544,17.809891,-21.584307,53.746277,-12.763861,-1381.962036,46.371872,-18.099174,0,0,1
1.188335,0.555773,0.862976,5.446383,-1.564154,-6.362932,53.625,-13.64701,-1382.604736,20.728163,-49.180325,0,0,1
0.406841,0.644885,1.038269,11.095239,23.733555,-5.645374,54.25153,-11.393137,-1383.174927,30.040915,-18.410763,0,0,1
0.383648,0.41051,0.654724,5.461651,-1.075604,-13.233161,54.275333,-11.799784,-1384.511475,28.411831,-26.402313,0,0,1
0.281109,0.529162,0.655212,-1.332242,-14.205376,-22.836214,53.789616,-13.338991,-1386.817993,36.582607,-18.457758,0,0,1
0.331646,0.72301,0.627869,0.912033,-25.25881,-42.637741,53.714436,-15.954386,-1391.12439,45.517086,-19.102869,0,0,1
0.527447,1.045275,0.89325,0.301345,-11.182474,-35.996521,53.574337,-17.161886,-1394.76001,45.21804,-20.987352,0,0,1
0.806744,0.573596,1.112732,-30.187202,-51.869499,-46.042324,49.967972,-22.608669,-1399.410278,22.652683,-32.798931,0,0,1
0.506451,0.675891,0.601013,-37.164303,-62.724457,-60.943085,46.103985,-28.949896,-1405.565552,40.694614,-29.246607,0,0,1
0.486919,0.571887,0.438904,-42.15667,-55.518353,-61.14156,41.831264,-34.546837,-1411.740845,41.101315,-34.036526,0,0,1
0.478619,0.734484,0.365662,-35.026897,-33.335148,-73.431633,38.540607,-37.760551,-1419.157471,50.64645,-30.256933,0,0,1
0.72105,0.755725,0.3974,-22.278809,-9.411483,-63.248428,36.415623,-38.740494,-1425.545532,42.549122,-40.180332,0,0,1
0.577007,1.091662,1.31488,-16.843693,-10.816063,-70.378197,34.765003,-39.409386,-1432.653687,37.244137,-18.656284,0,0,1
0.760357,0.537951,0.762634,-18.049801,-42.892399,-56.485069,32.814003,-43.650097,-1438.358643,26.543421,-39.170357,0,0,1
0.355083,0.563342,0.816345,-12.843692,-48.113773,-65.660645,31.532974,-47.933342,-1444.990356,32.32592,-19.697365,0,0,1
0.399517,0.680529,0.627625,-22.233006,-70.724457,-80.591942,29.550674,-54.441841,-1453.130127,42.449089,-23.34288,0,0,1
0.355328,0.720324,0.58905,-22.202473,-65.121407,-80.317131,27.688419,-60.216721,-1461.242188,46.318043,-20.90004,0,0,1
0.32896,0.761584,0.490173,-17.240639,-69.838966,-80.164459,26.472567,-66.32428,-1469.338745,52.219688,-19.961731,0,0,1
0.524029,0.907824,0.765808,-13.255906,-53.029804,-72.408737,25.51849,-70.722847,-1476.651978,44.372265,-23.807882,0,0,1
0.737408,0.791613,1.199402,-34.538349,-61.716827,-71.553772,22.176447,-75.960396,-1483.878906,29.346598,-27.163586,0,0,1
0.484966,0.673205,0.750916,-61.225372,-115.411484,-90.805679,16.4125,-86.378258,-1493.050293,36.983608,-25.681839,0,0,1
0.436382,0.632678,0.457703,-69.469643,-125.0756,-93.507973,10.1084,82.385361,-1502.494629,45.012886,-29.19796,0,0,1
0.474712,0.765002,0.608826,-85.545982,-92.190109,-114.36293,2.333653,74.694702,-1514.045288,44.738255,-25.898432,0,0,1
0.599712,0.907092,0.365662,-79.378044,-87.151939,-125.904915,-4.524901,67.544182,-1526.761719,52.247913,-31.516211,0,0,1
0.59483,0.780871,0.327576,-71.698654,-64.38858,-123.446899,-10.55136,62.718399,-1539.229858,48.989002,-35.085979,0,0,1
0.76939,0.938098,0.665222,-53.759724,-46.999268,-108.714081,-14.807747,59.736374,-1550.209961,42.686295,-33.783424,0,0,1
0.504009,0.641223,0.62323,-29.057434,-87.289345,-119.416367,-16.6145,49.313595,-1562.270996,38.659954,-29.407639,0,0,1
0.685894,0.692004,0.791931,-36.981098,-40.327515,-63.889652,-19.273689,43.673473,-1568.723877,33.445522,-33.112019,0,0,1
0.368267,0.618273,0.70697,-37.301708,-41.930565,-59.187359,-21.824383,38.221504,-1574.701782,37.797783,-21.410809,0,0,1
0.482769,0.694201,0.578064,-29.271172,-43.319878,-58.637741,-23.431799,32.606869,-1580.624146,42.66798,-28.120508,0,0,1
0.452984,0.691271,0.434753,0.515086,-28.022171,-45.309498,-21.95714,28.600752,-1585.200439,47.752239,-29.017414,0,0,1
0.475689,0.803088,0.46283,48.56089,-24.480185,-41.798046,-15.702865,25.062351,-1589.421997,50.428684,-27.166845,0,0,1
0.834332,0.778918,0.953552,49.141041,39.474014,9.346992,-9.893198,27.785789,-1588.477905,31.581442,-34.122746,0,0,1
0.744732,0.683703,0.7724,28.499817,24.374777,18.430962,-6.224305,28.926125,-1586.616333,32.505959,-35.828121,0,0,1
0.694927,0.751574,0.552673,36.011269,54.374779,46.125618,-1.730492,32.995964,-1581.957642,40.246574,-36.682678,0,0,1
0.390728,0.676379,0.526062,38.118141,75.397675,64.324089,2.995195,39.308655,-1575.460938,45.907131,-24.512674,0,0,1
0.292583,0.634631,0.579041,35.629589,63.428211,57.026382,7.34929,44.424454,-1569.701294,44.369125,-18.807392,0,0,1
0.352886,0.790637,0.719421,25.156307,57.565617,38.034012,10.584591,48.868431,-1565.859863,44.615906,-18.269159,0,0,1
0.777691,1.055285,1.165466,24.621956,117.031265,59.209587,13.549703,58.948444,-1559.879639,36.986217,-26.318785,0,0,1
0.410259,0.488146,0.759705,36.667759,65.107605,56.84317,17.49774,63.725163,-1554.138428,29.48275,-24.433302,0,0,1
0.396343,0.459582,0.632263,43.9044,68.161041,77.866074,22.126005,72.259476,-1546.273926,31.628078,-26.887814,0,0,1
0.115826,0.555285,0.732361,40.179211,50.298443,56.721039,26.397017,75.64917,-1540.545044,36.829697,-7.182808,0,0,1
0.067974,0.54967,0.919617,27.782261,23.046534,29.011114,29.23494,76.344727,-1537.614868,30.798754,-3.630324,0,0,1
0.300396,0.857775,0.709412,33.599056,2.710655,-6.988886,32.937317,78.384079,-1538.320801,48.072136,-15.102509,0,0,1
1.004009,0.540637,1.352966,-1.45438,-14.312246,-17.034687,32.490437,78.308357,-1540.04126,17.790951,-34.570747,0,0,1
0.785015,0.727893,0.760437,11.583788,-0.281712,-22.882015,33.660461,79.58004,-1542.352295,33.663467,-36.713539,0,0,1
0.445171,0.421984,0.453796,-0.049799,-2.190108,-11.706444,33.653858,80.657806,-1543.534668,33.576817,-35.693104,0,0,1
0.466656,0.579211,0.436951,0.163941,18.390045,-8.347665,33.840553,83.809921,-1544.377808,42.177216,-32.748409,0,0,1
0.544537,0.788439,0.580261,12.118139,36.038898,-5.111023,35.257904,88.719154,-1544.894043,44.735481,-29.084848,0,0,1
0.581646,1.076525,1.181824,0.591422,27.580885,-12.149191,35.396458,-87.125145,-1546.121094,39.258526,-19.993437,0,0,1
0.713482,0.418322,0.7724,33.079971,43.000732,29.163786,38.396667,-81.908134,-1543.175537,21.694286,-39.085133,0,0,1
0.37022,0.498889,0.828308,27.431118,38.695389,23.667603,40.919968,-76.858917,-1540.785156,28.805199,-20.950638,0,0,1
0.234722,0.505725,0.556091,18.805162,14.588517,12.76684,42.762062,-74.224609,-1539.495728,39.957901,-17.342077,0,0,1
0.155376,0.555041,0.771179,12.469284,0.115235,-4.775146,43.845131,-72.914452,-1539.978027,35.204967,-9.287267,0,0,1
0.328228,0.853869,0.811951,11.400582,-14.281712,-25.080488,44.982143,-73.181084,-1542.511108,44.274097,-15.565929,0,0,1
0.93858,0.826281,1.339783,-11.393312,-27.609955,-32.088123,43.490768,-75.066422,-1545.751953,26.798956,-30.806278,0,0,1
0.77354,0.666125,0.674988,-9.607052,-25.716825,-29.355297,42.329594,-76.894615,-1548.716797,32.977318,-39.203659,0,0,1
0.430279,0.414172,0.494324,-23.713921,-33.548885,-40.225529,39.781635,-79.351616,-1552.779541,32.291935,-33.711369,0,0,1
0.456158,0.707385,0.360291,-17.194839,-17.182474,-40.194996,38.295834,-80.062943,-1556.839233,50.588882,-29.882208,0,0,1
0.732037,0.797229,0.426208,-2.233006,9.336609,-23.645374,38.174168,-78.317535,-1559.227417,43.263725,-38.9995,0,0,1
0.457378,0.884631,1.096619,-7.530716,30.603785,-18.485069,37.398666,-74.081718,-1561.09436,36.668682,-17.984636,0,0,1
0.734722,0.409777,0.781189,-6.767357,-43.991634,-43.599575,36.399105,-77.750183,-1565.497925,20.912218,-39.790398,0,0,1
0.470074,0.662463,0.983826,-12.492547,-36.281712,-50.485069,35.060238,-80.218742,-1570.596924,31.281364,-21.619793,0,0,1
0.391216,0.551379,0.617859,-26.355141,-50.12904,-50.11866,32.490707,-84.081879,-1575.658936,37.015228,-25.286985,0,0,1
0.235699,0.602893,0.580994,-21.83606,-67.503082,-73.187363,30.557116,-89.396141,-1583.050903,43.877857,-15.72224,0,0,1
0.74107,0.967395,1.093445,-41.301708,-105.014534,-72.43927,26.582289,81.459198,-1590.36731,36.217899,-26.912218,0,0,1
0.819927,0.669787,0.529236,-37.622318,-54.06797,-63.370567,23.016047,77.201447,-1596.7677,34.46302,-43.845894,0,0,1
0.725445,0.706652,0.532166,-40.73682,-48.083237,-65.675911,19.286533,73.711052,-1603.401001,38.147018,-39.353848,0,0,1
0.654888,0.720568,0.493347,-36.950562,-27.335148,-53.904919,16.069633,72.393852,-1608.845459,41.309875,-36.86702,0,0,1
0.601177,0.681994,0.407654,-36.981098,-23.961102,-55.981255,12.951765,71.432053,-1614.499512,43.195755,-37.112358,0,0,1
0.55064,0.793322,0.540222,-28.0956,-19.671024,-56.149193,10.827887,71.059509,-1620.170532,45.803001,-29.843235,0,0,1
0.967144,0.963977,1.070496,-15.607051,-34.846596,-59.340031,9.741549,69.111679,-1626.163818,33.750217,-33.876106,0,0,1
0.624615,0.448107,0.83075,-6.523082,12.222105,-17.950718,9.367513,71.869308,-1627.976807,23.322517,-33.494164,0,0,1
0.509136,0.487658,0.685974,5.904399,11.611418,-14.515604,10.358974,74.557793,-1629.442871,29.719746,-31.17091,0,0,1
0.373394,0.506701,0.705017,4.957834,3.351876,-12.561405,11.290936,76.532982,-1630.711548,32.42083,-23.271166,0,0,1
0.287945,0.594104,0.653503,13.675391,-14.12904,-25.507969,13.213867,76.842674,-1633.287842,39.758038,-18.057415,0,0,1
0.52232,0.804553,0.828796,15.873864,-32.602322,-28.637741,15.308684,75.192207,-1636.180298,39.394974,-24.332188,0,0,1
0.673931,0.850939,0.898376,19.156307,31.245007,-0.149191,17.641623,79.809509,-1636.195312,37.151115,-28.574095,0,0,1
0.631207,0.420031,0.70575,-8.233006,-17.564154,-8.668275,16.952343,79.323936,-1637.070801,23.922756,-37.544437,0,0,1
0.631207,0.610949,0.700867,2.637223,-0.12904,-12.378199,17.53298,80.641235,-1638.321045,32.93264,-34.171963,0,0,1
0.452984,0.544055,0.506531,-1.164303,22.390045,-0.576672,17.840714,84.217438,-1638.379272,38.68174,-31.357372,0,0,1
0.401958,0.575305,0.529724,8.16394,20.68012,-8.607206,19.109272,87.635956,-1639.248657,40.865231,-27.202646,0,0,1
0.391705,0.748645,0.868591,5.766994,20.985464,-28.988886,20.061041,-88.816826,-1642.176514,38.156967,-18.859812,0,0,1
0.72398,0.623889,1.007263,-6.385677,-20.61759,-45.217896,19.561771,-89.709747,-1646.74353,26.700199,-31.426701,0,0,1
0.477886,0.560168,1.151062,-9.439113,-16.373314,-35.569038,18.720291,-89.945602,-1650.33606,24.201859,-20.471146,0,0,1
0.386822,0.481555,0.737732,-21.744457,-46.266445,-55.950718,16.794264,86.799751,-1655.987061,30.032244,-23.705137,0,0,1
0.320904,0.575549,0.59906,-27.347507,-59.976364,-73.034691,14.556745,82.304878,-1663.363525,40.261169,-21.120876,0,0,1
0.472515,0.569201,0.677185,-20.003998,-63.793159,-81.172096,12.9772,77.38237,-1671.56189,34.5793,-28.108412,0,0,1
0.893658,0.910754,0.607849,-21.164303,-72.373314,-69.675911,11.425213,71.486816,-1678.599121,40.120007,-39.219608,0,0,1
0.698833,0.814807,0.703552,-21.011631,-55.777893,-54.897285,9.905157,67.476387,-1684.143799,39.409061,-32.990013,0,0,1
0.634624,0.602893,0.41864,-20.019264,-44.174843,-41.446903,8.493834,64.537483,-1688.329956,38.414413,-40.8475,0,0,1
0.635845,0.702258,0.560486,-23.958195,-21.136673,-36.653008,6.745422,64.048904,-1692.03186,39.64225,-35.285915,0,0,1
0.520611,0.703967,0.490417,-26.248272,-1.121406,-40.042324,4.903368,65.631927,-1696.076172,44.545544,-31.249701,0,0,1
0.648785,0.839465,0.514099,-19.77499,-26.266445,-53.675911,3.756002,64.651672,-1701.497437,45.401554,-33.388123,0,0,1
0.872662,0.936389,0.872742,-3.851326,-14.587055,-39.904919,4.043437,64.829132,-1705.527832,37.187923,-34.284039,0,0,1
0.615093,0.482531,0.771912,0.377681,18.664852,7.179053,4.521015,68.299057,-1704.802734,26.053186,-34.046436,0,0,1
0.374126,0.463,0.735046,9.202108,19.519815,0.705771,5.927582,71.999153,-1704.731445,29.308157,-23.299974,0,0,1
0.32774,0.534289,0.640808,7.278445,3.580884,-11.798046,7.261195,74.084686,-1705.923096,36.587238,-21.445883,0,0,1
0.269634,0.597277,0.73114,6.866231,-4.373315,-22.21026,8.544961,71.851341,-1708.166382,37.468479,-15.939463,0,0,1
0.597027,0.833117,0.887878,4.912033,-28.525986,-21.385832,9.618383,70.668388,-1710.326294,37.906422,-26.121187,0,0,1
0.564312,0.625109,1.011902,11.476917,23.015999,-3.904916,11.128965,74.625504,-1710.720703,28.348221,-25.381773,0,0,1
0.688335,0.546984,0.563171,2.316613,-21.900032,-21.416367,11.767539,73.740456,-1712.883789,31.59272,-41.243271,0,0,1
0.571392,0.544299,0.625671,2.713559,-4.449651,-19.416367,12.455091,74.733871,-1714.844849,32.715714,-34.567291,0,0,1
0.49107,0.612902,0.447693,10.209743,17.046532,-5.843848,14.070276,77.868401,-1715.435059,42.68634,-32.902763,0,0,1
0.527935,0.668078,0.536072,10.774628,33.367142,9.011114,15.687408,82.580765,-1714.524902,41.603252,-31.647217,0,0,1
0.451275,0.863146,0.955261,8.881498,3.260273,-15.355298,17.037724,84.465515,-1716.075806,39.248611,-19.316404,0,0,1
1.083355,0.662463,0.96283,13.599055,18.786991,8.751572,18.534273,87.37915,-1715.191895,24.563566,-42.82933,0,0,1
0.328228,0.497424,0.767029,12.927299,20.390045,11.514931,20.059208,-89.145226,-1714.028931,30.803925,-19.749794,0,0,1
0.383892,0.444201,0.688416,9.537987,11.504548,11.606535,21.190163,-86.725731,-1712.856689,29.403456,-25.106319,0,0,1
0.253521,0.566027,0.804626,6.469285,-2.12904,-6.744611,22.083883,-85.490967,-1713.537842,33.859627,-14.450849,0,0,1
0.20982,0.627551,0.757507,5.996002,-35.396214,-45.828583,23.007755,-87.525482,-1718.166504,38.603207,-12.04073,0,0,1
1.024517,1.170031,1.239685,-5.683388,-57.991638,-51.416367,22.70579,87.864883,-1723.359497,36.036644,-31.006594,0,0,1
0.65147,0.486682,0.794861,-27.515446,-40.77026,-38.927818,20.034994,84.973083,-1727.29126,25.340023,-34.953037,0,0,1
0.629498,0.628039,0.466003,-38.339874,-55.823696,-51.095757,16.613916,80.571548,-1732.451904,38.725174,-38.831947,0,0,1
0.581402,0.621447,0.416931,-32.889492,-31.060337,-46.576675,13.845799,78.728874,-1737.156128,40.978172,-37.844036,0,0,1
0.558697,0.679553,0.42157,-23.378044,-25.701559,-62.729347,12.138019,77.511566,-1743.491821,44.154842,-34.939568,0,0,1
0.683941,0.694934,0.707458,-12.141402,12.771724,-59.874382,11.398116,80.133621,-1749.539185,35.230782,-34.593201,0,0,1
0.614361,0.57091,1.063416,-35.77499,-36.617588,-56.607208,8.127784,77.96701,-1755.25647,24.931978,-26.976475,0,0,1
0.495708,0.660998,0.737488,-36.126133,-49.472549,-65.111023,5.122347,74.579079,-1761.832642,36.644165,-26.589581,0,0,1
0.39024,0.626574,0.694031,-32.492546,-46.663391,-71.767509,2.567796,71.615677,-1769.081177,38.200493,-22.653561,0,0,1
0.381207,0.624133,0.690125,-32.75209,-64.831329,-82.607208,0.041964,63.320797,-1777.424561,38.366364,-22.278086,0,0,1
0.436626,0.66173,0.838562,-38.614685,-91.716827,-93.065224,-3.081173,52.531605,-1786.824097,34.989285,-22.232082,0,0,1
1.068218,0.753283,0.455505,-44.217739,-76.632858,-31.660641,-6.736821,46.485672,-1790.021851,32.970074,-50.508797,0,0,1
0.358746,0.438586,0.725525,-54.599419,-50.159573,-56.301865,-11.437285,40.13245,-1795.708374,28.452534,-22.935894,0,0,1
0.86314,0.602648,0.516296,-46.614685,-38.037437,-65.202629,-15.20387,34.616768,-1802.293823,30.929672,-47.404747,0,0,1
0.619976,0.564318,0.655212,-42.767357,-27.533619,-76.958351,-18.492302,30.486374,-1810.06665,32.030239,-35.638969,0,0,1
0.706646,0.625109,0.597595,-41.316975,-32.358047,-90.240799,-21.531261,25.888792,-1819.18103,34.037495,-39.252918,0,0,1
0.763287,0.686633,0.546326,-34.15667,-37.625221,-83.187363,-23.757753,20.826483,-1827.583008,36.185661,-41.019413,0,0,1
0.588238,0.804064,0.77533,-29.255905,-55.930565,-74.347664,-25.387087,14.318494,-1835.092163,39.563133,-27.772635,0,0,1
0.603374,0.560656,0.997986,-25.301708,-68.251175,-81.813316,-26.870192,6.720742,-1843.355347,25.676029,-27.794079,0,0,1
0.62608,0.563098,0.608337,-22.187202,-19.625223,-58.866749,-27.872398,3.902569,-1849.300903,32.823952,-37.062683,0,0,1
0.593121,0.60509,0.635193,-14.462014,-1.655757,-32.546139,-28.049438,2.97938,-1852.588013,34.847927,-34.062531,0,0,1
0.455669,0.646838,0.792908,-12.782624,-8.984001,-30.485069,-28.048239,1.550485,-1855.666992,35.271835,-24.003544,0,0,1
0.300396,0.613879,0.612976,-6.599418,-28.022171,-41.233162,-27.301193,-1.636149,-1859.831543,41.96476,-19.099474,0,0,1
0.357525,0.822375,0.701843,7.705925,-37.014534,-59.553772,-25.067736,-5.633094,-1865.846436,46.235207,-18.298512,0,0,1
1.197369,0.859729,1.155701,-4.26354,-8.632856,-22.820948,-24.441948,-7.169626,-1868.151367,27.321907,-39.735733,0,0,1
0.712261,0.552844,0.602478,-13.17957,-24.083239,-40.943085,-24.644596,-10.231153,-1872.286621,30.651407,-41.058006,0,0,1
0.652203,0.512316,0.472351,-13.851327,-7.854231,-24.317129,-24.873425,-11.666039,-1874.742676,32.464226,-43.104946,0,0,1
0.540874,0.578723,0.471863,-5.576517,15.412945,-15.645374,-24.15036,-10.625494,-1876.322876,38.87833,-35.917484,0,0,1
0.532818,0.710314,0.472595,8.988368,26.542717,-14.668276,-21.879211,-8.425495,-1877.804321,44.92371,-31.985523,0,0,1
0.525494,0.844348,0.81781,12.499819,47.657219,-9.996519,-19.38485,-4.021613,-1878.813965,40.977287,-24.086971,0,0,1
1.018414,0.655139,1.119812,13.690659,7.76409,1.331725,-17.173973,-3.935312,-1878.679443,23.403906,-38.131176,0,0,1
0.299419,0.543078,0.917175,14.942567,16.954929,-1.843848,-14.763989,-2.492216,-1878.865723,29.374498,-15.690447,0,0,1
0.343853,0.407824,0.64325,4.713559,-4.220643,-13.095757,-13.417944,-3.346081,-1880.188354,29.211002,-24.297552,0,0,1
0.307232,0.600695,0.687683,5.537987,-11.854231,-20.698811,-11.829967,-4.824425,-1882.278931,38.573475,-18.596699,0,0,1
0.304058,0.697131,0.713074,7.599055,-26.403851,-30.714077,-10.001914,-7.680523,-1885.381104,41.965008,-16.956621,0,0,1
0.522564,0.981799,0.939392,15.873864,-10.9382,-21.217894,-7.38255,-9.030282,-1887.52417,42.406658,-21.035366,0,0,1
0.805035,0.516223,1.058289,-8.767357,-8.281712,-18.408733,-7.678339,-10.356601,-1889.383423,21.217709,-34.360123,0,0,1
0.773052,0.770373,0.569519,-3.194838,-10.174841,-2.836214,-7.066187,-11.934587,-1889.669922,38.740578,-38.900627,0,0,1
0.543316,0.465441,0.321472,16.530354,32.557983,21.46913,-4.560679,-9.350211,-1887.501587,36.400517,-43.845341,0,0,1
0.479107,0.753039,0.55365,28.820431,53.275539,28.171419,-0.700718,-4.432785,-1884.65625,45.805058,-27.139601,0,0,1
0.500591,0.780139,0.567566,32.698292,62.89386,33.667603,3.467185,1.332627,-1881.255859,45.870564,-27.423918,0,0,1
0.775005,1.017688,1.274841,38.469284,106.802261,75.423325,7.891511,11.369009,-1873.638062,34.299011,-25.412634,0,0,1
0.402691,0.712023,0.707458,44.057072,89.367142,90.797371,12.91796,19.549982,-1864.467529,41.175575,-21.860373,0,0,1
0.169781,0.506213,0.778015,27.079971,78.786987,81.484398,15.988848,26.750006,-1856.237549,32.443569,-10.365588,0,0,1
0.130474,0.586535,0.746765,35.965469,58.344242,65.713402,19.983524,31.833445,-1849.600464,37.729618,-7.823649,0,0,1
0.211529,0.589221,1.000916,23.996002,40.344242,61.255386,22.557783,34.98362,-1843.413696,29.940233,-10.321674,0,0,1
0.181988,0.787463,0.849792,30.744095,38.313709,56.675232,25.993279,37.897697,-1837.689453,42.17997,-8.927186,0,0,1
0.651714,0.483508,1.517273,18.041803,18.145769,21.774473,27.585592,38.490677,-1835.490234,16.320097,-22.25696,0,0,1
0.799664,0.665393,0.652283,16.973103,7.260273,18.049282,29.370146,37.626759,-1833.667236,32.813412,-40.636448,0,0,1
0.462017,0.398059,0.578552,14.179208,13.138136,17.179054,30.751478,37.50782,-1831.932129,28.263859,-33.340816,0,0,1
0.468853,0.533068,0.476013,17.9044,24.496914,7.209588,32.680309,38.517036,-1831.203979,38.584221,-33.266602,0,0,1
0.24107,0.610217,0.58905,21.873863,50.89386,-12.988886,35.067646,42.466835,-1832.515869,43.793591,-15.866892,0,0,1
0.534527,0.828967,0.910828,11.110506,42.817524,-30.088121,36.228607,45.386349,-1835.55481,38.129772,-23.461645,0,0,1
0.928082,0.478869,1.321228,-5.77499,-10.754993,-24.027054,35.262817,42.745274,-1837.981567,16.519526,-33.440769,0,0,1
0.485943,0.585559,1.024841,-6.477281,-26.587055,-35.4011,34.462555,38.811245,-1841.557129,27.30588,-22.377008,0,0,1
0.266949,0.416125,0.649841,-21.851326,-45.289345,-62.240795,32.22324,33.170631,-1847.843506,30.639078,-19.082674,0,0,1
0.409771,0.575793,0.483826,-22.904762,-46.006901,-67.141556,30.15654,27.381781,-1854.624756,42.243896,-28.583759,0,0,1
0.541607,0.783557,0.610046,-15.836059,-42.938198,-58.515606,28.862871,22.011957,-1860.53479,43.845818,-28.608313,0,0,1
0.838238,1.215686,0.954529,-13.194839,-60.602325,-45.996521,27.854399,15.00386,-1865.18042,43.74054,-28.471973,0,0,1
0.614117,0.330676,1.060242,-25.790257,-54.037437,-65.187355,25.046658,8.776343,-1871.764282,15.103331,-28.94055,0,0,1
0.682964,0.704699,0.605408,-31.942928,-50.953468,-62.943085,22.137472,2.83103,-1878.121582,37.672909,-36.320625,0,0,1
0.497906,0.495959,0.316833,-34.492546,-39.274078,-57.019421,19.081507,-1.917579,-1883.880493,40.042847,-40.232113,0,0,1
0.566753,0.709582,0.339539,-25.805523,-14.999269,-54.088123,17.086525,-4.079295,-1889.343384,47.04398,-35.771961,0,0,1
0.555279,0.785266,0.751404,-17.301708,-2.922933,-38.43927,15.833194,-4.828276,-1893.225708,40.04615,-27.062721,0,0,1
0.9669,1.085803,1.168884,-14.568883,-29.762627,-44.332397,14.786383,-8.301982,-1897.703247,35.594051,-31.218376,0,0,1
0.813335,0.478381,0.647644,18.026535,25.321342,-14.622474,16.769081,-6.535419,-1899.180176,24.708025,-45.289227,0,0,1
0.4315,0.436633,0.703308,15.41585,17.626686,-15.156825,18.51729,-5.210632,-1900.71106,27.886478,-27.530609,0,0,1
0.311626,0.502062,0.551208,1.644857,-8.098505,-21.599573,19.077967,-6.361671,-1902.892578,38.410816,-22.683081,0,0,1
0.322125,0.667834,0.627869,5.461651,-14.327513,-23.828581,20.105434,-8.039825,-1905.299316,43.421692,-19.362514,0,0,1
0.555767,0.97301,0.65863,3.553254,-17.915298,-9.706443,21.024406,-10.158575,-1906.279663,48.469055,-25.314499,0,0,1
0.642681,0.834826,1.217712,11.660124,-27.457283,-28.271328,22.382614,-13.143599,-1909.13501,31.228727,-23.523623,0,0,1
0.795269,0.746203,0.686707,-9.011632,-49.915298,-61.278965,21.750622,-18.583426,-1915.324219,35.381634,-38.104145,0,0,1
0.55479,0.507678,0.439148,-18.278809,-18.861864,-31.492702,20.219564,-20.870174,-1918.505005,35.659561,-39.573509,0,0,1
0.399517,0.478625,0.325378,-10.920028,6.649586,-20.088123,19.592098,-20.486948,-1920.533936,42.889431,-34.617661,0,0,1
0.508892,0.730822,0.501648,-0.935296,10.176304,-14.149191,20.020559,-19.667154,-1921.963013,45.643898,-29.859873,0,0,1
0.440533,0.926379,0.802429,4.774628,25.260273,-20.317131,20.999569,-17.168962,-1924.015015,45.341461,-19.770744,0,0,1
1.169537,0.673449,1.328308,4.621956,-1.380948,13.514931,21.453716,-17.725124,-1922.650024,20.83288,-38.14278,0,0,1
0.402935,0.566271,0.810242,24.301346,31.412945,19.514931,24.07074,-14.704903,-1920.679077,32.037586,-22.176693,0,0,1
0.309185,0.333117,0.532898,16.560886,14.451113,18.827908,25.796513,-13.50436,-1918.777466,28.39962,-26.196342,0,0,1
0.23399,0.58385,0.651306,20.118139,0.924396,1.78974,28.074921,-13.442308,-1918.59668,40.15221,-14.976629,0,0,1
0.279888,0.630969,0.857849,18.026535,-6.984001,-14.439268,29.99695,-14.159258,-1920.055054,34.963078,-14.725927,0,0,1
0.650982,1.261828,0.930847,21.965469,9.489281,-4.454535,32.531284,-13.387752,-1920.505005,48.006565,-22.546354,0,0,1
0.788189,0.466174,0.975281,2.713559,2.130502,-1.99652,32.557114,-13.631073,-1920.706665,20.393194,-36.097713,0,0,1
0.592632,0.666857,0.637146,6.072338,27.38241,4.064549,33.256321,-11.302598,-1920.296143,37.465366,-32.722889,0,0,1
0.468121,0.403918,0.380066,8.560887,29.458746,18.461496,34.114891,-8.964035,-1918.431519,33.816853,-40.165813,0,0,1
0.389019,0.663439,0.505798,18.713558,31.015999,24.11035,36.207172,-6.214789,-1915.996338,46.115475,-24.999935,0,0,1
0.378521,0.81383,0.863708,17.293713,31.000731,14.797375,38.010654,-3.375856,-1914.501831,40.794582,-17.690769,0,0,1
0.786968,0.870959,1.471863,13.614323,29.489281,1.285923,39.149128,-0.883678,-1914.371948,27.556988,-24.709452,0,0,1
0.494732,0.538195,0.799988,16.54562,28.725922,24.079817,40.59938,1.434029,-1911.939941,29.777288,-27.162991,0,0,1
0.380962,0.369982,0.637634,6.637223,8.924396,12.263023,40.973915,1.742116,-1910.701416,26.47838,-27.328524,0,0,1
0.339947,0.549426,0.685486,4.637223,6.832792,2.232488,41.327045,1.960492,-1910.475952,35.680721,-21.154615,0,0,1
0.239117,0.586779,0.731384,6.927299,-1.53362,-12.088123,41.932728,1.483362,-1911.696899,37.327908,-14.306113,0,0,1
0.431255,0.85509,0.901794,6.576155,1.092334,-25.920183,42.555874,1.179061,-1914.314819,40.544537,-19.137733,0,0,1
0.725445,0.478869,1.073181,-15.820792,-19.075605,-36.607208,40.544575,-1.366371,-1918.012207,20.288193,-31.687389,0,0,1
0.798443,0.684191,0.705261,-13.607051,-19.838963,-21.355299,39.041061,-4.084634,-1920.169067,32.710236,-39.096558,0,0,1
0.430035,0.407336,0.542419,-14.828425,-18.861864,-26.057589,37.402027,-6.517344,-1922.800903,30.475147,-32.372818,0,0,1
0.507915,0.632678,0.479187,-7.271173,-10.861864,-25.340031,36.777847,-8.114458,-1925.360229,42.178101,-32.61776,0,0,1
0.500347,0.669299,0.514587,4.896765,23.290808,-26.301863,37.386967,-6.259908,-1928.016724,42.999897,-30.653168,0,0,1
0.622662,0.920275,1.092957,0.591422,18.817524,-27.645374,37.421558,-4.743097,-1930.80896,36.189514,-23.547298,0,0,1
0.673931,0.453967,0.944275,-8.187204,-31.350414,-43.4011,36.290184,-8.406304,-1935.192505,21.371202,-32.750301,0,0,1
0.489849,0.576525,0.96405,-18.828426,-44.434383,-48.179726,34.262024,-13.10752,-1940.058716,28.064182,-23.561308,0,0,1
0.316998,0.529406,0.673523,-25.683388,-56.495453,-67.034683,31.743044,-18.843409,-1946.829224,35.420139,-20.305956,0,0,1
0.265484,0.600207,0.756775,-36.553616,-73.900032,-85.736977,28.226326,-26.088539,-1955.488647,36.811031,-15.368655,0,0,1
0.452984,0.796252,0.87738,-48.049797,-85.167206,-95.584305,23.683483,-34.415073,-1965.1427,38.88269,-20.922901,0,0,1
0.628033,0.78966,0.673767,-61.362778,-85.304611,-86.485069,17.948269,-42.793716,-1973.877686,40.607159,-31.174706,0,0,1
0.796246,0.753527,0.62738,-54.629951,-61.976364,-80.988884,12.914526,-48.853844,-1982.057617,36.624691,-39.078972,0,0,1
0.565044,0.644885,0.671814,-61.866592,-64.938202,-85.767517,7.258718,-54.92931,-1990.720093,36.301891,-31.2479,0,0,1
0.645855,0.638537,0.580261,-69.484917,-60.342781,-87.645378,0.962573,-60.539787,-1999.572266,36.332355,-36.81678,0,0,1
0.598248,0.612414,0.541687,-58.828423,-50.632858,-99.324768,-4.13567,-65.064499,-2009.604126,37.192432,-36.193249,0,0,1
0.687359,0.632678,0.6828,-54.294075,-47.197742,-101.446899,-8.764082,-69.163696,-2019.85022,33.145199,-36.44268,0,0,1
0.715923,0.776477,0.772156,-40.981098,-55.625221,-92.225525,-11.917006,-73.949722,-2029.165039,36.405334,-33.17585,0,0,1
0.631695,0.759875,0.607361,-22.217739,-41.10614,-60.042324,-13.059192,-77.199387,-2035.22937,40.92944,-32.998562,0,0,1
0.490826,0.582873,0.718933,-17.378044,-20.800795,-42.75988,-13.841975,-78.273018,-2039.548096,33.805565,-27.937836,0,0,1
0.540142,0.697131,0.643982,-14.202472,-33.167206,-46.927818,-14.177444,-80.583374,-2044.287842,39.672611,-29.645811,0,0,1
0.513287,0.635852,0.554871,1.873865,-16.602322,-35.095757,-12.907002,-81.24118,-2047.83252,40.071033,-31.308905,0,0,1
0.569927,0.875109,0.715271,18.026535,-19.716825,-33.72171,-9.989857,-82.103127,-2051.238525,43.737041,-26.759796,0,0,1
1.07774,0.853869,1.240662,26.499817,28.893862,3.270656,-6.618002,-78.312889,-2050.908203,27.455246,-35.586887,0,0,1
0.575298,0.477893,0.644958,11.73646,16.89386,-0.027054,-4.745158,-75.787056,-2050.910889,28.940493,-35.628784,0,0,1
0.489605,0.486193,0.638367,10.102873,15.932029,-6.775146,-3.027348,-73.322151,-2051.595215,31.146246,-31.389534,0,0,1
0.45274,0.592639,0.465027,13.049437,29.916761,-0.347665,-0.827164,-69.514664,-2051.630371,42.400219,-31.006012,0,0,1
0.423687,0.610217,0.521179,27.079971,34.466381,-0.668275,2.714863,-65.269539,-2051.697754,42.255428,-27.832468,0,0,1
0.639751,1.03844,1.019714,19.660124,37.031265,2.461496,5.422174,-60.773373,-2051.449219,40.782536,-23.728968,0,0,1
1.041851,0.58507,1.104431,19.553253,26.878593,24.904245,7.670591,-57.693752,-2048.933838,21.074007,-39.814384,0,0,1
0.374126,0.571643,0.757507,24.148674,43.55035,39.392792,10.58907,-52.659584,-2044.9552,34.082771,-21.516054,0,0,1
0.328472,0.443225,0.540466,28.133408,36.359512,44.522564,13.862391,-48.510944,-2040.458374,35.022835,-25.17075,0,0,1
0.196148,0.616564,0.816101,26.026535,29.794624,25.179052,16.887255,-44.808769,-2037.915283,36.300285,-10.85585,0,0,1
0.209087,0.577258,0.849548,16.072338,1.122869,2.201953,18.808685,-44.031582,-2037.692871,33.416771,-11.506381,0,0,1
0.676617,1.101184,0.920349,27.660126,13.535082,-3.691176,22.049311,-42.31609,-2038.065674,43.95002,-25.242071,0,0,1
0.837017,0.54967,0.972839,7.003635,-20.266445,-27.55377,22.765257,-44.212463,-2040.848633,23.185701,-36.836311,0,0,1
0.533062,0.590197,0.785583,4.54562,-0.434383,-20.836214,23.397242,-43.940815,-2042.953125,31.868181,-28.480251,0,0,1
0.417095,0.469348,0.405457,3.354781,1.336609,-13.29423,24.039331,-43.608109,-2044.295898,38.898979,-33.920334,0,0,1
0.577007,0.646105,0.441101,-3.637586,0.46638,-1.141558,24.031616,-43.418003,-2044.411255,41.655918,-36.411018,0,0,1
0.354595,0.700793,0.801208,1.354781,23.229738,6.095084,24.458162,-40.618851,-2043.795654,38.654125,-18.424282,0,0,1
0.972759,0.831408,1.179138,12.347147,16.51218,-5.691176,25.761955,-38.851879,-2044.370483,28.541798,-33.988907,0,0,1
0.61729,0.591662,0.875916,28.102871,45.840427,27.957678,28.606438,-34.143246,-2041.546753,28.904926,-30.28455,0,0,1
0.501812,0.486437,0.594421,26.759361,45.306076,27.117983,31.323313,-29.639137,-2038.807861,32.01812,-33.157658,0,0,1
0.353863,0.593615,0.612,35.24791,37.61142,20.293558,34.986084,-25.774384,-2036.758179,40.020123,-22.540447,0,0,1
0.18272,0.619738,0.674988,27.141041,24.863327,6.721037,37.803761,-23.023462,-2036.079346,41.548954,-11.276961,0,0,1
0.455425,0.822863,0.930847,19.782261,3.809892,-13.278962,39.774761,-22.588514,-2037.420532,38.451347,-20.131233,0,0,1
0.767437,0.515979,0.930847,2.454017,11.077067,-12.515604,39.685287,-21.756227,-2038.68457,23.156199,-35.794609,0,0,1
0.65733,0.748645,0.746765,-2.187204,17.809891,-4.393466,39.41433,-20.195612,-2039.128296,36.961998,-31.866661,0,0,1
0.572613,0.616564,0.434998,6.118139,35.626686,32.201954,40.043819,-17.009239,-2035.875854,40.610069,-37.193428,0,0,1
0.3773,0.658068,0.597839,14.392948,45.947296,33.988213,41.526546,-12.58109,-2032.442993,42.949413,-22.994953,0,0,1
0.264263,0.580432,0.851013,21.156307,31.092335,11.972946,43.451645,-9.539716,-2031.233765,33.078838,-14.38832,0,0,1
0.757915,0.702258,1.134216,8.927299,18.695389,-0.118657,44.011021,-8.090508,-2031.245728,27.239332,-29.602791,0,0,1
0.701519,0.817736,0.620056,25.476917,71.092331,62.339355,46.475185,-1.579096,-2024.949463,41.133945,-34.355881,0,0,1
0.268414,0.638781,0.696228,31.675392,61.565617,65.56073,49.492229,4.229079,-2018.327881,40.565929,-15.85854,0,0,1
0.160259,0.500842,0.710632,28.408215,49.61142,49.866074,52.00441,8.84615,-2013.291382,34.509201,-10.444378,0,0,1
0.195416,0.585559,0.788269,21.202108,23.535082,23.362259,53.778751,10.773628,-2010.931763,35.792198,-11.255129,0,0,1
0.500591,0.805041,0.870056,4.637223,8.771724,17.423328,53.936764,10.968487,-2009.171997,38.729733,-22.894823,0,0,1
0.340679,0.710559,1.016785,13.84333,0.161036,-1.492703,54.898834,10.457915,-2009.322754,33.529419,-15.357023,0,0,1
0.609234,0.461047,0.758484,-2.217738,-37.10614,-24.011786,54.088478,5.886699,-2011.747925,25.3566,-34.464573,0,0,1
0.608013,0.688098,0.525574,1.614323,-1.930567,-22.698811,53.977886,4.876339,-2014.040527,40.569458,-35.076942,0,0,1
0.505718,0.504504,0.387878,8.301346,16.267906,-4.80568,54.487286,5.619538,-2014.525879,38.364395,-38.473648,0,0,1
0.432476,0.70885,0.490662,22.530354,31.718288,-7.187359,56.573643,8.113807,-2015.251831,47.302418,-26.640818,0,0,1
0.473003,0.850695,0.707458,20.698292,37.107601,-5.4011,58.390671,11.161503,-2015.797363,44.989174,-23.146973,0,0,1
1.135845,0.680773,1.549255,8.43875,49.657219,42.400425,58.448395,15.175944,-2011.514893,19.513327,-33.86998,0,0,1
0.408062,0.606066,0.909607,8.835697,39.092335,34.797371,58.779915,18.332338,-2008.000366,31.296406,-20.472267,0,0,1
0.403423,0.367541,0.502136,11.980735,25.886227,43.362259,59.384357,19.868805,-2003.620728,29.709476,-32.955463,0,0,1
0.22398,0.504992,0.805847,18.072338,13.046533,26.293558,60.607918,20.497721,-2000.965088,31.122416,-13.252769,0,0,1
0.369488,0.482043,0.822937,17.675392,-5.777895,6.782106,61.707645,19.092329,-2000.280151,28.11866,-21.177143,0,0,1
0.371197,0.687609,0.905457,9.553254,-17.930567,0.76684,62.120953,16.574093,-2000.202759,35.093914,-18.081049,0,0,1
0.950298,0.347277,0.514099,-41.423843,-31.74736,35.49966,57.134773,11.963027,-1996.61731,17.818455,-56.861473,0,0,1
0.731548,0.45592,0.862488,-44.217739,-14.55652,41.759205,52.054523,9.545668,-1992.399658,21.955841,-36.864876,0,0,1
0.815289,0.296984,0.48822,-37.286438,-10.785528,42.980579,47.669922,7.187753,-1988.058594,17.355026,-54.972565,0,0,1
0.715923,0.137072,0.419617,-13.545983,-0.23591,41.621799,45.563332,5.85381,-1983.854736,9.379445,-58.342068,0,0,1
0.802105,-0.025281,1.030457,-22.065067,-14.587055,22.263023,42.445881,3.535131,-1981.606201,-1.109118,-37.888752,0,0,1
0.97691,-0.036023,0.877625,-21.316975,-15.014536,5.560732,39.455585,1.017479,-1981.044556,-1.571295,-48.040512,0,0,1
1.03233,-0.060438,0.786072,-4.981097,-0.571788,5.545465,38.12011,-0.112085,-1980.484497,-2.666823,-52.630974,0,0,1
1.252789,-0.083387,1.013611,10.179209,1.382411,-7.660642,38.306004,-0.991606,-1981.258179,-2.962142,-50.929722,0,0,1
1.271587,0.038928,1.055359,29.049438,15.031265,5.606534,40.442188,-0.489775,-1980.691895,1.34947,-50.289749,0,0,1
1.002789,0.124865,0.719421,49.141041,21.214472,13.301191,44.612869,0.541031,-1979.348511,5.777198,-53.939892,0,0,1
0.711285,0.105334,0.570984,84.789894,38.970196,10.247755,52.244865,3.371973,-1978.313477,6.587541,-50.775391,0,0,1
0.662212,0.236437,0.738708,68.515083,43.153404,-5.29423,58.249699,6.766059,-1978.848145,13.405005,-40.490036,0,0,1
0.754009,0.343127,0.600769,54.713562,38.008366,2.76684,62.892078,9.443575,-1978.568726,19.591187,-47.461605,0,0,1
0.611919,0.270129,0.102722,82.225014,66.848061,35.927143,70.243393,14.57694,-1974.940063,23.526079,-64.719299,0,0,1
0.734966,0.742541,2.170105,83.705925,97.672485,81.530197,77.48288,23.597675,-1966.705566,17.956779,-17.76746,0,0,1
0.484234,0.35216,0.826843,53.461651,35.306076,63.835541,81.628448,26.053993,-1960.258179,20.179472,-28.316126,0,0,1
0.484234,0.445178,0.42572,82.469284,80.237373,101.362259,88.851158,32.711369,-1950.02063,34.62318,-38.171959,0,0,1
0.22398,0.579211,0.997009,92.56089,77.183937,116.537827,96.826721,39.476952,-1938.250366,29.545479,-10.992852,0,0,1
0.270611,0.667102,0.828308,105.59906,62.008366,104.324089,106.091103,44.53949,-1927.713623,37.436161,-14.2756,0,0,1
0.102398,0.637561,0.928894,99.308983,59.275539,88.84317,114.48494,49.411926,-1918.740479,34.303082,-5.193205,0,0,1
0.655865,0.833117,1.009216,72.667755,57.764091,84.782104,120.081703,53.608803,-1910.17749,34.690296,-26.61871,0,0,1
0.621197,0.827502,0.917419,58.713562,74.1763,58.782104,124.226639,59.344734,-1904.240479,36.755299,-26.6931,0,0,1
0.616558,0.718371,0.689148,48.86623,43.672485,53.927143,127.335739,65.445091,-1898.793823,37.84256,-31.772299,0,0,1
0.494976,0.601916,0.596619,35.415848,39.153404,59.133247,129.051025,71.005852,-1892.821411,37.827641,-30.286739,0,0,1
0.508892,0.651477,0.551697,38.957836,34.786991,49.224854,131.145203,76.012955,-1887.849731,40.957565,-30.799465,0,0,1
0.314068,0.645373,0.56781,36.591423,64.542717,28.827909,133.041016,84.07972,-1884.93811,44.844692,-20.070511,0,0,1
0.400982,0.743518,0.859314,16.087605,51.077068,-1.950718,132.734543,-89.335007,-1885.135132,38.099354,-19.436687,0,0,1
0.895367,0.75133,1.274109,10.515085,38.939663,-24.775145,131.635757,-84.317818,-1887.637451,25.755989,-31.187771,0,0,1
0.641949,0.469836,0.546326,11.812796,49.474014,7.30119,130.754959,-78.568481,-1886.900024,29.13394,-41.697624,0,0,1
0.437603,0.521105,0.840515,17.583788,18.344242,14.369894,130.456436,-75.658783,-1885.448608,28.807116,-23.869095,0,0,1
0.341656,0.564074,0.711365,18.392948,-11.411482,-4.485069,130.378967,-75.687569,-1885.901611,35.556461,-20.622757,0,0,1
0.290875,0.550646,0.655212,12.041803,-16.312246,-20.378199,129.713852,-76.163818,-1887.959839,37.528572,-18.770739,0,0,1
0.444195,0.81798,0.777283,10.133407,-36.419117,-32.210262,128.970917,-78.675056,-1891.213135,42.417526,-21.487288,0,0,1
1.182232,1.035998,1.170105,-13.011632,-72.38858,-45.691177,125.74192,-85.008705,-1895.828003,31.915838,-37.106361,0,0,1
0.743511,0.595324,0.600769,-25.958195,-32.77026,-34.805679,121.296028,-87.378502,-1899.343384,31.914381,-41.318356,0,0,1
0.60606,0.504504,0.487488,-23.149036,-29.777893,-30.591938,117.238197,-89.394821,-1902.433228,32.969051,-40.823421,0,0,1
0.623638,0.596301,0.496033,-21.805523,-19.182474,-37.049953,113.471298,89.718391,-1906.175293,36.80827,-38.800209,0,0,1
0.63316,0.654406,0.481628,-17.347511,-21.976368,-37.920185,110.273636,88.590256,-1910.005249,39.441093,-37.927132,0,0,1
0.446392,0.621691,0.645203,-30.599419,-31.396214,-69.72171,105.807304,86.781189,-1917.047119,38.393169,-26.483154,0,0,1
0.859722,1.089953,0.633972,-16.385677,-48.190109,-74.240799,102.980858,83.189964,-1924.54541,45.577599,-34.287006,0,0,1
1.164165,0.858264,0.946716,-11.255906,-19.31988,-17.095757,100.402504,82.36718,-1926.272095,29.768625,-42.334713,0,0,1
0.405132,0.601672,0.644714,-15.973464,7.428212,-3.523237,97.579697,84.561592,-1926.62793,38.315006,-24.674522,0,0,1
0.359722,0.492053,0.520935,-2.660486,15.168671,-13.691175,96.121895,87.438629,-1928.010742,37.856236,-26.656536,0,0,1
0.026714,0.322863,0.891296,-14.202472,-24.403849,-64.011787,93.191788,83.242073,-1934.475952,19.904182,-1.614199,0,0,1
1.232037,1.268908,0.963806,-24.355145,-58.373314,-78.317131,89.698257,78.645218,-1942.385986,39.04895,-37.710945,0,0,1
0.660015,0.778918,0.777039,-21.210106,-22.587055,-53.614841,86.552521,77.817467,-1947.801025,37.380157,-30.959093,0,0,1
0.496929,0.483752,0.40741,-29.011631,-35.045071,-42.591942,82.689362,75.629211,-1952.102783,36.973038,-38.157265,0,0,1
0.636822,0.740344,0.333679,-23.164303,-0.373314,-19.752245,79.659576,76.917603,-1954.097778,45.840065,-38.103535,0,0,1
0.551128,0.762072,0.682556,-16.904762,22.664854,-16.194992,77.212746,80.65638,-1955.733521,40.979973,-28.311775,0,0,1
0.79649,0.808703,1.251648,-5.897128,-34.098507,-30.240793,75.656693,78.705696,-1958.787842,28.594864,-28.124229,0,0,1
0.527203,0.369494,0.896912,5.110506,13.947296,-10.072855,75.040451,81.541618,-1959.805176,19.552631,-28.523451,0,0,1
0.375103,0.394885,0.677673,8.606689,-3.197742,-27.080488,74.931801,82.683083,-1962.540283,27.013309,-25.559263,0,0,1
0.385601,0.446154,0.576599,4.637223,-11.838963,-17.416367,74.547134,82.900108,-1964.299316,32.748928,-27.874624,0,0,1
0.345074,0.656604,0.748474,5.476918,-15.838963,-25.324764,74.369156,82.892059,-1966.857178,38.54311,-19.115158,0,0,1
0.360699,0.680041,0.719421,3.782261,-28.464916,-35.736977,74.060097,81.616371,-1970.466553,40.197895,-20.019537,0,0,1
0.718121,1.193957,1.183289,13.064705,-26.281712,-40.882019,74.687653,80.520035,-1974.595581,40.780815,-23.132301,0,0,1
0.789898,0.462512,0.849548,-15.454379,-29.640491,-41.095757,72.098976,78.791115,-1978.746216,21.737488,-39.235401,0,0,1
0.631939,0.615832,0.616882,-15.912395,-31.243542,-39.523239,69.779778,77.003975,-1982.738037,34.88966,-35.941452,0,0,1
0.480816,0.472277,0.40033,-11.836059,-12.327513,-35.309498,67.95359,77.087051,-1986.304321,37.047302,-37.833332,0,0,1
0.556988,0.678088,0.484314,-10.981097,7.290808,-18.729343,66.359077,79.191765,-1988.196045,42.573399,-33.759735,0,0,1
0.496197,0.799914,0.602966,0.927299,24.970198,-11.538505,66.037476,83.152451,-1989.36145,45.689713,-26.351414,0,0,1
0.624371,1.081164,1.149353,-2.446746,21.764091,-21.630108,65.266075,86.811852,-1991.546143,39.576496,-21.587936,0,0,1
0.704937,0.41173,0.710632,2.026536,-3.976368,-9.172092,64.608528,87.469231,-1992.472534,22.358973,-40.640388,0,0,1
0.455181,0.602648,0.908142,0.057071,-10.55652,-19.385832,63.935585,87.821625,-1994.430542,30.678825,-22.666941,0,0,1
0.360699,0.479846,0.634949,-0.477281,-27.961102,-28.668274,63.275806,86.409988,-1997.32605,33.308872,-24.380613,0,0,1
0.32774,0.597277,0.59198,-4.110868,-32.464916,-39.965984,62.432095,84.642563,-2001.362671,41.434818,-21.29236,0,0,1
0.549175,0.841906,0.690369,-4.58415,-38.587055,-33.798046,61.602966,82.195038,-2004.776245,43.662563,-26.766413,0,0,1
0.801373,0.963244,0.972839,9.339514,-29.991634,-32.820946,62.043098,80.575706,-2008.091187,37.388344,-30.342825,0,0,1
0.616314,0.480334,0.606628,-13.133769,-33.411484,-36.500336,60.083252,78.486374,-2011.77771,29.049631,-38.537628,0,0,1
0.583355,0.610705,0.672302,-17.255905,-18.754993,-32.179726,57.862679,78.006042,-2015.027832,34.45409,-32.711483,0,0,1
0.517437,0.60802,0.435242,-14.85896,-12.953466,-33.538506,56.073948,78.070114,-2018.415161,41.96315,-34.683094,0,0,1
0.625347,0.728625,0.37616,1.476918,20.115234,-12.851481,55.997761,81.353127,-2019.713135,44.955261,-37.330006,0,0,1
0.550396,0.794543,0.833923,8.057071,27.565617,-10.271329,56.445122,85.543694,-2020.750488,38.491505,-25.54044,0,0,1
0.914898,0.743029,1.113953,3.766994,17.0618,6.064549,56.234459,88.434738,-2020.137939,27.26906,-34.343143,0,0,1
0.440777,0.455432,0.625671,10.54562,55.000732,51.850807,56.768692,-84.883278,-2014.901001,30.755573,-29.664583,0,0,1
0.369976,0.50841,0.802185,16.011269,47.168671,47.682869,57.81654,-78.942528,-2010.085083,29.92128,-21.283916,0,0,1
0.298443,0.574572,0.693542,36.881496,42.985466,50.843174,61.05616,-73.475655,-2004.949951,37.270893,-18.33371,0,0,1
0.141705,0.527209,0.724304,55.797531,36.038898,32.095081,66.068672,-68.618782,-2001.708374,35.539764,-8.988409,0,0,1
0.654644,0.91173,0.948181,58.698292,24.695387,32.904243,71.324341,-65.33123,-1998.38501,38.35397,-26.458313,0,0,1
0.550396,0.566027,0.921082,41.186844,46.848061,47.133251,74.530785,-59.927204,-1993.624512,27.812498,-26.980968,0,0,1
0.656841,0.883166,0.640564,35.751728,52.145771,55.423325,77.457039,-54.188271,-1988.026733,43.908394,-31.049978,0,0,1
0.453716,0.710803,0.580261,35.766994,57.87096,62.308823,80.327698,-47.90266,-1981.733521,43.979389,-26.311169,0,0,1
0.363628,0.695666,0.612488,28.835697,74.420578,60.52256,82.461769,-40.006874,-1975.620728,44.32325,-21.420954,0,0,1
0.224712,0.697375,0.678894,18.606689,84.374779,41.56073,83.539825,-31.115341,-1971.423096,44.280346,-13.001024,0,0,1
0.61607,0.892443,0.877625,14.362414,82.9702,39.927143,84.086029,-22.804771,-1967.390503,39.770344,-26.206316,0,0,1
0.815289,0.721301,0.967224,28.744095,77.260277,69.469131,85.843231,-15.3824,-1960.374146,29.691769,-34.047318,0,0,1
0.139019,0.530139,0.598816,33.263176,87.153404,92.003479,88.23423,-6.645525,-1951.081787,40.773727,-9.860877,0,0,1
0.220318,0.572375,1.042419,29.52272,59.138134,77.438591,89.956619,-0.869036,-1943.260498,28.245386,-10.495733,0,0,1
0.277203,0.66759,0.664001,41.141041,57.351875,68.232483,93.086731,4.496944,-1936.369019,42.855148,-16.404501,0,0,1
0.07774,0.591418,0.891052,44.820431,40.786991,63.621803,96.330788,8.360951,-1929.943237,33.473396,-4.157547,0,0,1
0.629742,1.011584,1.151306,49.889133,33.565617,52.85844,100.094742,11.069301,-1924.604492,37.627178,-22.337875,0,0,1
0.705669,0.490832,0.963806,37.980736,24.298441,35.392792,102.298935,12.590539,-1921.029785,22.33782,-33.121902,0,0,1
0.514019,0.73009,0.731384,42.392948,61.535084,51.041645,105.233795,17.900558,-1915.874634,39.238689,-26.445601,0,0,1
0.410992,0.60509,0.623474,37.141041,51.382412,52.873707,107.585701,22.122051,-1910.534424,39.017807,-25.316216,0,0,1
0.22105,0.597521,0.729431,27.171574,66.390045,38.034012,108.88533,27.987026,-1906.692993,38.09481,-13.193662,0,0,1
0.154644,0.627062,0.830505,13.629589,28.970198,9.011114,108.788391,30.125704,-1905.782837,36.585709,-8.45251,0,0,1
0.575298,0.899035,0.974548,9.217376,10.756456,-20.882015,108.29425,30.118752,-1907.891968,38.464375,-23.455681,0,0,1
1.020611,0.635852,1.077087,9.858597,35.031265,12.659969,107.568092,32.19949,-1906.613281,23.196068,-39.213974,0,0,1
0.367291,0.541613,0.521179,27.52272,41.93203,35.041645,108.947861,35.185085,-1903.074097,40.346569,-26.042349,0,0,1
0.233257,0.475939,0.853455,19.934933,21.93203,36.400425,109.30761,36.383705,-1899.397705,28.277267,-13.42538,0,0,1
0.240826,0.597277,0.792175,13.919666,7.397678,12.461496,109.215332,36.115372,-1898.139038,35.805672,-13.644132,0,0,1
0.191021,0.606555,0.659607,13.186842,-22.098505,-19.065222,109.165329,32.96508,-1900.064575,41.453407,-12.033623,0,0,1
0.439556,1.019152,1.143005,6.423483,-5.060337,-29.736977,108.413185,31.484606,-1903.067993,39.768101,-16.015184,0,0,1
0.602398,0.413439,0.917908,-22.171936,-42.083237,-42.714077,104.463036,26.071611,-1907.38208,20.6346,-30.895302,0,0,1
0.741558,0.664904,0.599548,-29.469646,-45.838963,-39.675911,100.154594,20.220352,-1911.389404,34.886208,-39.634346,0,0,1
0.453716,0.512316,0.434021,-30.324608,-25.915298,-45.752247,95.934227,16.569891,-1916.010376,39.212624,-34.048,0,0,1
0.535015,0.645617,0.451111,-18.003998,-5.869497,-46.149193,93.087364,14.973773,-1920.671387,42.693176,-34.188004,0,0,1
0.530621,0.747668,0.512878,-8.355144,9.916761,-41.798046,91.306099,15.049103,-1924.892944,45.37394,-30.337908,0,0,1
0.527691,1.122668,0.909607,-0.324609,17.687756,-49.538506,90.3853,16.097603,-1929.896362,46.87236,-20.062521,0,0,1
0.798443,0.460559,0.837097,-5.820792,-12.281712,-34.805679,88.435631,13.762305,-1933.411743,21.708649,-39.885159,0,0,1
0.473492,0.589709,0.963318,0.270811,-21.304613,-34.256062,87.269402,10.92345,-1936.871582,28.783825,-22.743919,0,0,1
0.410259,0.558947,0.660095,-10.889495,-29.274078,-30.729343,85.160637,7.299922,-1939.97522,35.722996,-25.375578,0,0,1
0.34605,0.654406,0.607605,-9.347509,-37.243542,-33.828583,83.394272,3.043913,-1943.391846,43.103073,-21.182276,0,0,1
0.398785,0.707385,0.621765,-8.523082,-41.594688,-36.500336,81.757996,-1.592991,-1947.078369,43.760925,-22.949194,0,0,1
0.60313,1.051623,1.179871,3.782261,-55.09087,-48.805683,81.265938,-7.431768,-1952.00769,38.436378,-20.887121,0,0,1
0.742046,0.513781,0.877136,-20.446747,-47.029804,-40.805683,78.098671,-12.660714,-1956.129028,24.09367,-36.128609,0,0,1
0.630718,0.616809,0.536804,-28.187202,-56.44965,-49.767513,74.480247,-18.747778,-1961.155518,36.676212,-37.644604,0,0,1
0.508648,0.520129,0.394226,-30.019264,-38.113773,-52.836216,70.798271,-22.903954,-1966.491943,38.946445,-37.931473,0,0,1
0.621441,0.746203,0.37323,-22.034531,-18.785528,-48.75988,68.11792,-25.038864,-1971.416748,45.829391,-36.679893,0,0,1
0.643902,0.709094,0.480896,-10.355144,11.55035,-31.752245,66.559074,-24.133356,-1974.623779,41.42292,-36.926163,0,0,1
0.566509,0.987902,0.846619,4.759361,-4.648124,-44.408733,66.581406,-24.581354,-1979.109009,44.121429,-23.529602,0,0,1
0.930523,0.588244,0.785583,3.751727,5.260273,-2.256062,66.136772,-24.43857,-1979.336914,25.782497,-43.4753,0,0,1
0.518902,0.603381,0.746521,11.537987,29.245007,19.759207,66.627495,-21.623034,-1977.341187,33.571285,-28.395325,0,0,1
0.43858,0.523303,0.65155,10.011269,23.809891,17.805008,66.959358,-19.387693,-1975.542847,33.674694,-27.691238,0,0,1
0.481548,0.593615,0.629333,13.73646,26.756456,29.041647,67.716545,-16.933611,-1972.609619,36.837067,-29.101336,0,0,1
0.440533,0.660021,0.580505,26.377682,40.435844,36.888977,69.816422,-13.124984,-1968.883789,42.167377,-26.619268,0,0,1
0.365337,0.763781,0.803162,38.133408,36.267906,36.827908,73.012138,-9.637556,-1965.164185,40.880199,-18.243462,0,0,1
0.643414,0.731066,1.265564,25.996002,13.245007,23.179054,74.669884,-8.609024,-1962.82312,27.245453,-23.760473,0,0,1
0.61607,0.511096,0.761658,17.996002,19.092335,25.988214,75.508774,-7.224831,-1960.198364,27.552223,-33.887337,0,0,1
0.524761,0.511096,0.67157,9.308979,19.015999,19.698137,75.539009,-5.835599,-1958.208862,30.95031,-31.873495,0,0,1
0.404888,0.489611,0.60614,5.049437,20.496914,20.690504,75.205795,-4.23926,-1956.119141,33.88863,-27.457838,0,0,1
0.342632,0.571154,0.634949,-2.538349,10.206839,-3.095756,74.217758,-3.581406,-1956.431763,38.366009,-21.860262,0,0,1
0.609234,0.828234,0.816101,7.537987,6.481647,-36.729343,74.261909,-3.421278,-1960.141479,39.119778,-27.652668,0,0,1
1.236919,0.692248,1.283875,11.263178,9.306075,-7.859115,74.315926,-3.237705,-1960.935303,21.221043,-40.298374,0,0,1
0.30772,0.412219,0.818542,16.072338,-0.373314,-23.660643,74.925224,-3.581104,-1963.325073,25.238764,-18.56015,0,0,1
0.319927,0.370959,0.732361,-6.324609,-17.42675,-33.538506,73.298698,-5.660201,-1966.712402,24.899233,-21.290989,0,0,1
0.246685,0.556994,0.670593,-16.492546,-44.602322,-60.668278,70.959045,-10.277742,-1972.839844,37.937428,-15.800386,0,0,1
0.29771,0.638781,0.628845,-16.965832,-58.892395,-79.584305,68.711693,-16.26881,-1980.877808,42.55534,-18.372728,0,0,1
1.128033,1.430041,1.109802,-23.164303,-91.930565,-75.141556,65.886742,-25.681316,-1988.467163,42.103909,-31.929817,0,0,1
0.763531,0.589709,0.679626,-48.828426,-61.0298,-72.530869,60.33559,-32.014748,-1995.792725,29.98098,-40.316319,0,0,1
0.607281,0.607531,0.50238,-50.355141,-69.304611,-67.675911,54.897255,-38.986385,-2002.628052,37.626286,-37.608074,0,0,1
0.591167,0.697619,0.348083,-50.126133,-51.029804,-77.72171,49.747421,-44.001019,-2010.477905,45.479767,-37.171566,0,0,1
0.715923,0.726428,0.332703,-43.057434,-40.968735,-68.75988,45.343033,-48.013313,-2017.422607,42.619179,-41.861389,0,0,1
0.736675,0.858996,0.335876,-25.820793,1.336609,-34.729343,42.814323,-47.693047,-2020.930298,46.694534,-38.614841,0,0,1
0.653179,0.979113,0.986755,-8.782624,5.474014,-49.584309,41.880821,-46.700729,-2025.938354,39.604507,-25.168024,0,0,1
0.641705,0.379016,0.743591,-10.187203,-37.594688,-55.034687,40.456894,-50.238941,-2031.496826,21.100863,-37.555374,0,0,1
0.516705,0.534533,0.784119,-3.912395,-28.510719,-57.889652,39.853497,-52.627502,-2037.343628,29.649574,-28.567528,0,0,1
0.465191,0.622912,0.680115,-10.828425,-44.648125,-66.653008,38.726395,-56.529552,-2044.075562,37.088223,-26.766363,0,0,1
0.506451,0.697131,0.579285,-3.591784,-47.976368,-65.904915,38.439884,-60.731548,-2050.731934,42.17672,-29.194241,0,0,1
0.3773,0.670031,0.500916,-1.011631,-44.632858,-65.019417,38.508854,-64.420189,-2057.298828,46.894997,-24.275648,0,0,1
0.361187,0.834826,0.658142,-1.301708,-38.12904,-64.149193,38.570549,-67.28112,-2063.777832,48.035767,-18.765873,0,0,1
1.013775,0.867053,0.857849,-17.668121,-41.594688,-44.088123,36.713146,-70.847183,-2068.230713,33.140114,-39.73209,0,0,1
0.637066,0.779406,0.858826,-32.248272,-78.877129,-61.752247,33.508701,-77.81311,-2074.467773,36.087696,-28.780249,0,0,1
0.64854,0.589221,0.535583,-46.920029,-88.281708,-53.294231,28.894634,-85.778214,-2079.850586,35.01252,-39.162224,0,0,1
0.541119,0.60924,0.540955,-57.698654,-88.541252,-59.584309,23.376295,86.501732,-2085.868652,38.528393,-33.590481,0,0,1
0.519878,0.686389,0.552429,-59.75972,-73.42675,-90.317131,17.836544,80.493073,-2094.990723,42.13966,-30.542503,0,0,1
0.500103,0.774035,0.434998,-63.423843,-67.335144,-113.523239,12.190643,75.230576,-2106.456543,49.426117,-29.390263,0,0,1
0.633892,0.858264,0.378845,-60.019264,-59.167206,-116.088127,6.99193,70.788673,-2118.181396,49.290405,-34.046005,0,0,1
0.561871,0.962023,0.73114,-48.599419,-62.78553,-114.958351,2.966,62.659622,-2129.792236,46.213947,-24.938362,0,0,1
0.646587,0.789172,0.662537,-46.523083,-93.182472,-98.286598,-0.88925,51.541061,-2139.719238,40.446239,-32.108448,0,0,1
0.413921,0.762316,0.845886,-53.683388,-47.625221,-68.133926,-5.405253,45.39677,-2146.60083,38.98967,-19.976294,0,0,1
0.371929,0.722521,0.634216,-54.981098,-75.945831,-79.950722,-9.849167,36.548721,-2154.675781,44.500549,-21.149797,0,0,1
0.481792,0.800891,0.524597,-41.958195,-78.11377,-77.034691,-12.83817,27.551792,-2162.456299,48.351852,-26.712751,0,0,1
0.45689,0.649523,0.406189,-14.355144,-53.228275,-61.431637,-13.06759,21.11598,-2168.660889,46.734535,-30.812029,0,0,1
0.5023,0.809924,0.703064,8.347147,-46.617588,-65.660645,-11.117087,15.577538,-2175.292725,43.147625,-25.095633,0,0,1
1.114361,0.796252,1.076111,0.408216,-41.564156,-27.309496,-10.310281,10.356462,-2178.051025,27.203087,-39.775352,0,0,1
0.558941,0.551379,0.526794,-23.423847,-49.42675,-38.43927,-11.709094,4.532277,-2181.93335,35.673752,-36.239872,0,0,1
0.702007,0.650744,0.459167,-23.118504,-29.884766,-41.294231,-13.007119,0.655753,-2186.104004,37.803188,-41.394279,0,0,1
0.589458,0.593615,0.464294,-16.981098,-14.9382,-38.805679,-13.660807,-1.59657,-2190.023438,38.348015,-38.0313,0,0,1
0.552837,0.737414,0.385681,-18.446747,1.107602,-34.515602,-14.262066,-2.126947,-2193.509521,47.569302,-33.596939,0,0,1
0.573345,0.71593,0.62616,-12.187203,26.374777,-35.706444,-14.380322,-0.095472,-2197.115967,40.139679,-31.081989,0,0,1
0.595318,1.019397,0.723328,-6.126136,-2.739727,-46.485069,-13.75073,-0.874085,-2201.811035,47.417572,-25.467236,0,0,1
1.146832,0.704211,0.98114,0.866231,1.809892,-10.744612,-12.889705,-1.547842,-2202.89624,25.013489,-43.519047,0,0,1
0.419537,0.494982,0.756531,-3.118502,26.023632,16.034016,-12.345029,0.56106,-2201.276855,29.777599,-24.893761,0,0,1
0.389263,0.446887,0.650818,-1.637586,8.35951,5.117984,-11.650009,0.852337,-2200.76001,30.510452,-26.246319,0,0,1
0.292339,0.557482,0.634949,8.408216,-7.045071,-14.164458,-9.813297,-0.243725,-2202.190674,38.573254,-19.084738,0,0,1
0.411968,0.686877,0.660095,19.370049,-16.602322,-23.278963,-6.87105,-2.349867,-2204.541748,41.436745,-23.38599,0,0,1
0.638531,0.955676,1.148132,22.255543,-12.06797,-11.843847,-3.810102,-3.96024,-2205.738037,36.03376,-23.144081,0,0,1
0.873638,0.493273,0.797546,10.988369,11.947296,-2.072855,-2.193557,-3.557942,-2205.94751,22.635786,-42.972546,0,0,1
0.683941,0.656115,0.589783,19.996002,28.405312,25.423326,0.549486,-1.430912,-2203.379639,35.998463,-37.784294,0,0,1
0.48399,0.485949,0.430603,28.469284,41.275539,34.980579,4.093884,1.949126,-2199.84668,36.874851,-36.70174,0,0,1
0.410992,0.688098,0.537781,38.759361,54.069435,33.408058,8.757852,6.757897,-2196.472412,45.472237,-25.202087,0,0,1
0.273541,0.740832,0.882019,21.965469,57.199203,17.453863,11.531591,12.017138,-2194.709473,38.737751,-13.358944,0,0,1
0.582378,1.005725,1.177673,9.934933,19.107601,-18.500336,13.033004,13.255892,-2196.578125,37.434284,-20.608734,0,0,1
0.7169,0.437365,0.853943,14.209743,15.092335,2.140885,14.607191,13.749265,-2196.361816,21.418364,-36.767601,0,0,1
0.470318,0.617785,0.919128,-1.179571,-7.671024,-11.065222,14.816182,12.254799,-2197.479492,30.894449,-23.010139,0,0,1
0.377056,0.52135,0.727478,-18.507816,-28.587055,-27.782778,13.337299,8.723249,-2200.285645,32.467278,-22.845234,0,0,1
0.232037,0.56383,0.639832,-25.729187,-56.587055,-54.805683,11.31666,2.643382,-2205.821045,39.639126,-15.22081,0,0,1
0.618267,0.800158,1.106873,-47.851326,-69.732094,-66.347664,6.999138,-4.79867,-2212.522217,32.256786,-24.355137,0,0,1
0.881207,0.797961,0.534119,-38.538349,-68.816063,-64.179726,3.799706,-12.364969,-2219.004395,37.75378,-42.542984,0,0,1
0.655376,0.638537,0.61615,-45.026897,-67.365685,-64.149193,-0.025669,-19.514507,-2225.483398,35.369202,-36.449074,0,0,1
0.614849,0.672229,0.462341,-54.278805,-61.930565,-67.507973,-4.574709,-25.994144,-2232.301758,41.148129,-37.001965,0,0,1
0.620708,0.716906,0.422302,-52.309341,-51.258812,-72.485069,-8.78721,-31.282322,-2239.622803,43.679195,-36.723167,0,0,1
0.596539,0.780871,0.360291,-44.0956,-39.74736,-75.263695,-12.011005,-35.285824,-2247.224365,48.252274,-34.74765,0,0,1
0.830181,0.924426,0.7099,-37.515446,-19.533619,-68.607208,-14.679245,-37.222763,-2254.153809,40.241146,-35.460819,0,0,1
0.851421,0.687121,0.651794,-13.591784,-12.12904,-62.424004,-15.077929,-38.517944,-2260.45874,32.652241,-41.95525,0,0,1
0.579205,0.606066,0.781433,-17.713921,-9.426749,-38.790413,-15.891165,-39.287792,-2264.376465,31.926462,-30.357361,0,0,1
0.499371,0.541125,0.705261,-12.645219,-12.281712,-35.14156,-16.183878,-40.304188,-2267.925781,32.054363,-29.325592,0,0,1
0.450542,0.658068,0.609314,-7.439113,-22.419115,-35.843849,-15.777105,-42.250622,-2271.545898,40.971043,-26.673491,0,0,1
0.315289,0.583361,0.537048,1.522719,-25.900032,-39.355297,-14.448262,-44.402874,-2275.520752,43.129147,-21.684095,0,0,1
0.607769,0.879504,0.637146,31.385315,-12.9382,-32.912552,-10.153451,-45.380085,-2278.844971,44.966503,-29.232229,0,0,1
0.748638,0.674182,1.117615,21.079971,12.603785,-6.378199,-7.331504,-43.821709,-2279.489258,26.619181,-29.837503,0,0,1
0.728619,0.582141,0.595886,4.301345,-10.861864,-8.454535,-6.124415,-44.843872,-2280.343262,31.735596,-41.174316,0,0,1
0.591167,0.543322,0.557068,3.431116,6.542716,-0.057588,-4.98676,-44.043877,-2280.349121,33.777893,-37.224117,0,0,1
0.615337,0.701281,0.436218,11.828063,26.435846,12.934778,-2.857984,-41.280151,-2279.042725,42.915009,-36.688564,0,0,1
0.448101,0.656604,0.477234,21.370049,52.130501,21.78974,0.216104,-35.872681,-2276.842041,45.086025,-28.900574,0,0,1
0.357281,0.773303,0.739929,10.698292,27.977831,1.911877,2.135957,-32.755184,-2276.648926,43.262978,-18.460087,0,0,1
0.970562,1.050158,1.28656,8.240276,29.489281,7.163785,3.570648,-29.787283,-2275.925293,33.08939,-30.30262,0,0,1
0.551861,0.421008,0.711853,20.652491,38.069435,18.018747,6.044461,-26.097712,-2274.105469,25.052132,-33.714329,0,0,1
0.416607,0.511828,0.890076,11.980735,34.19157,19.377527,7.659646,-22.633179,-2272.148438,27.511066,-22.085125,0,0,1
0.321392,0.528918,0.724548,4.820429,10.191571,2.812641,8.657878,-21.565977,-2271.864258,33.714962,-19.711124,0,0,1
0.290386,0.575305,0.745056,-2.400945,-11.25881,-15.645374,8.961737,-22.591944,-2273.444336,35.73312,-17.144377,0,0,1
0.308941,0.716418,0.626892,6.454017,-35.762627,-37.248428,10.335518,-26.039484,-2277.206543,45.709816,-17.979683,0,0,1
1.150494,1.107531,1.105652,5.446383,-39.136673,-25.507969,11.363176,-30.118879,-2279.782959,34.764275,-36.321827,0,0,1
0.529644,0.371447,0.788269,-16.43148,-25.777895,-19.813313,9.936763,-32.693829,-2281.78418,21.361916,-31.291521,0,0,1
0.696148,0.670764,0.610291,-18.385677,-27.365681,-25.034687,8.636706,-35.498844,-2284.312744,35.924671,-37.511799,0,0,1
0.468609,0.58385,0.544373,-13.194839,-12.174841,-27.93545,7.940056,-36.602222,-2287.134277,39.105469,-30.414495,0,0,1
0.548931,0.62926,0.482605,-11.774991,-12.006903,-39.538506,7.430285,-37.752445,-2291.127686,40.725937,-34.691223,0,0,1
0.450298,0.697375,0.68866,-5.469646,17.901495,-46.469803,7.545951,-35.719028,-2295.821045,40.282951,-24.676134,0,0,1
0.84605,0.761584,1.58783,-31.271172,-42.663391,-63.813316,4.758667,-39.740692,-2302.266113,22.942841,-25.661039,0,0,1
0.569683,0.666125,0.780701,-31.072701,-41.274078,-52.301865,2.279445,-43.611885,-2307.548584,34.576431,-29.034843,0,0,1
0.416119,0.550158,0.689636,-27.698654,-35.10614,-59.78278,0.178937,-46.719505,-2313.58667,34.334751,-25.252516,0,0,1
0.447369,0.67174,0.727478,-25.912395,-53.09087,-77.981255,-1.625709,-51.526325,-2321.462891,38.187023,-24.313679,0,0,1
0.39146,0.66051,0.580994,-20.202473,-70.800797,-78.43927,-2.726554,-57.983448,-2329.385254,43.31422,-23.989357,0,0,1
0.975689,0.887072,0.848572,-13.17957,-78.861862,-57.431637,-3.28752,-65.399078,-2335.185791,34.450813,-38.477745,0,0,1
0.934917,0.632678,0.430115,-3.347509,-22.724459,-6.882016,-2.921458,-67.354507,-2335.880859,31.582405,-50.706799,0,0,1
0.661968,0.600695,0.612488,7.370048,0.527449,-0.240794,-1.460216,-66.708298,-2335.905273,33.666237,-37.65461,0,0,1
0.813335,0.667102,0.525574,14.33188,11.794624,-0.973619,0.67881,-65.08194,-2336.003662,34.562588,-43.761982,0,0,1
0.82188,0.68883,0.526306,21.568521,36.649586,19.240122,3.504376,-61.022198,-2334.060303,35.214523,-43.473545,0,0,1
0.827007,0.667102,0.48114,24.820431,55.474014,38.934776,6.588724,-55.214062,-2330.12793,34.885471,-45.156261,0,0,1
0.895367,0.703479,0.749207,24.270813,78.878593,73.499664,9.480709,-47.123638,-2322.704346,31.071712,-41.063137,0,0,1
0.38438,0.700793,0.785583,17.858597,61.886227,80.156151,11.832837,-40.456837,-2314.608643,38.704887,-20.058416,0,0,1
0.481792,0.673205,0.75116,32.576153,69.977829,87.209587,15.561172,-33.231918,-2305.800537,37.030247,-25.531195,0,0,1
0.399273,0.561145,0.74408,45.52272,67.412949,77.163788,20.427883,-26.358578,-2298.00708,33.604809,-23.191538,0,0,1
0.495464,0.591906,0.691345,60.087605,61.290806,68.125618,26.663483,-20.336115,-2291.126465,34.834297,-28.563738,0,0,1
0.457867,0.589953,0.798035,67.415848,70.283173,68.736305,33.456406,-13.4681,-2284.184082,32.668602,-24.766819,0,0,1
0.500347,0.596545,0.938171,68.85096,75.229736,67.117981,40.188046,-6.237096,-2277.405273,29.294819,-24.229925,0,0,1
0.263287,0.476184,0.972839,48.835697,70.57325,75.927147,44.723839,0.599737,-2269.736572,25.289824,-13.662464,0,0,1
0.282085,0.443469,1.0849,27.644855,25.962563,64.995842,46.997337,2.886867,-2263.171875,21.584278,-13.532539,0,0,1
0.390728,0.479357,0.949646,18.118139,-8.022169,8.079817,48.351196,1.631726,-2262.355713,25.023478,-20.168499,0,0,1
1.087749,0.694934,0.732117,2.65249,-19.380949,-5.752245,48.205193,-1.262013,-2262.936768,27.923862,-47.139023,0,0,1
0.679302,0.512072,0.447693,16.026535,-11.823696,-10.347665,49.471138,-3.306341,-2263.981934,32.187187,-44.962944,0,0,1
0.883404,0.589709,0.384705,32.423481,21.474014,7.805007,52.320347,-2.143599,-2263.193604,31.467737,-51.444149,0,0,1
0.587017,0.595812,0.494812,46.591423,91.504547,53.591267,56.64183,6.213195,-2257.781006,37.813541,-37.160027,0,0,1
0.768902,0.623156,1.313171,-2.446746,92.222107,62.659966,55.712204,14.65951,-2251.452393,22.269495,-27.878399,0,0,1
0.340923,0.698352,0.79364,-5.958197,34.848061,37.667603,54.787327,17.458097,-2247.647949,38.955376,-17.874189,0,0,1
0.498638,0.431262,0.526794,31.919666,45.367142,55.224854,57.465652,20.874981,-2242.070312,30.733414,-36.219852,0,0,1
0.240337,0.441271,0.864929,56.744095,35.733555,29.102716,62.456409,23.716341,-2239.130859,26.176798,-13.902308,0,0,1
0.487408,0.560168,0.825623,65.492188,32.924393,38.293556,68.295624,25.980139,-2235.263184,30.296188,-26.036554,0,0,1
0.325298,0.726916,0.648865,66.423485,74.420578,77.63707,74.405159,32.457455,-2227.421875,45.042416,-18.461525,0,0,1
0.594585,0.82384,0.779724,58.744095,95.93203,106.079811,79.532265,40.750412,-2216.707764,40.036011,-27.662537,0,0,1
0.718121,0.838732,1.092224,54.454018,45.092335,56.583633,83.985207,43.847828,-2210.99292,32.686176,-27.540695,0,0,1
0.361187,0.474963,0.534851,35.324245,50.313709,53.866074,86.528908,47.4151,-2205.55249,36.350742,-26.791224,0,0,1
0.488873,0.632922,0.485046,35.400581,56.970196,55.682869,89.153976,51.475479,-2199.928467,42.584549,-31.511496,0,0,1
0.286236,0.712023,0.592468,42.423485,75.046532,48.492027,92.515152,57.530636,-2195.030762,47.258617,-17.172001,0,0,1
0.304546,0.682971,0.78363,43.431118,60.084702,25.453863,95.745438,62.000622,-2192.459961,39.088867,-16.329456,0,0,1
0.781841,0.782336,1.376404,27.476917,15.168671,8.125618,97.076187,61.736374,-2191.63916,26.29966,-26.281755,0,0,1
0.412701,0.561389,0.858826,29.766994,50.359509,46.614166,98.691116,65.048004,-2186.931152,30.505501,-21.911491,0,0,1
0.226177,0.35802,0.740662,20.530354,28.619051,29.545465,99.245613,66.272301,-2183.947021,24.811243,-15.372866,0,0,1
0.255962,0.538928,0.693298,23.629589,19.22974,13.942411,100.321571,66.525208,-2182.538818,36.100552,-16.250717,0,0,1
0.119244,0.550158,0.732849,35.476917,11.046533,-12.897284,102.557388,66.139816,-2183.841553,36.53722,-7.413982,0,0,1
0.553326,0.983508,0.741638,45.553253,-8.449651,-5.706443,105.950027,63.49688,-2184.417969,46.746384,-24.189775,0,0,1
0.701275,0.524768,0.869812,16.148674,51.428211,42.614166,105.932594,70.224937,-2180.114014,25.158258,-34.618568,0,0,1
0.629742,0.844104,0.823181,36.22501,64.954926,50.232487,108.182701,78.287537,-2175.040527,39.160339,-28.107273,0,0,1
0.417339,0.588977,0.613953,23.644855,52.374779,57.56073,109.127968,84.983253,-2169.226807,38.427628,-26.129604,0,0,1
0.283306,0.66759,0.600769,26.698292,66.054169,62.873711,110.490906,-86.92852,-2162.876465,45.145054,-17.507746,0,0,1
0.122417,0.555041,0.836853,14.362414,66.405312,41.194317,110.368187,-78.756157,-2158.71582,33.275429,-6.950458,0,0,1
0.601665,0.928088,1.11615,8.759361,60.985466,12.950047,109.751869,-71.594955,-2157.407959,36.201809,-22.513268,0,0,1
0.64854,0.547717,0.832458,13.110506,55.993099,42.492027,109.403122,-65.281998,-2153.116211,27.430696,-33.057232,0,0,1
0.303082,0.509143,0.788757,23.965469,45.092335,46.5989,110.208588,-59.870956,-2148.409668,31.070965,-17.891941,0,0,1
0.072369,0.479846,0.793884,22.179207,19.535084,31.591269,110.820618,-56.82917,-2145.218994,31.045082,-4.460853,0,0,1
0.015972,0.471545,0.867859,7.095239,-5.594688,-7.156825,109.876755,-56.264877,-2145.941895,28.51306,-0.926462,0,0,1
0.33775,0.808703,0.769714,7.186841,-12.999269,-24.53087,109.26844,-56.762882,-2148.419434,43.893547,-16.831663,0,0,1
0.948345,0.625598,1.281433,-17.423847,-29.732094,-29.355297,105.786987,-59.243019,-2151.384277,21.42626,-33.625652,0,0,1
0.927105,0.620227,0.570984,-3.98873,-39.533619,-21.080488,103.869781,-62.925583,-2153.513428,29.66704,-47.719215,0,0,1
0.402447,0.396838,0.622498,-17.164303,-13.380949,-26.836214,100.656715,-63.563461,-2156.223877,28.162626,-28.597052,0,0,1
0.544781,0.635363,0.617126,-25.942928,-32.190109,-51.034687,96.828995,-66.110252,-2161.378418,37.662277,-31.593952,0,0,1
0.569683,0.651477,0.403259,-17.820793,-9.090872,-47.859116,93.989044,-66.420494,-2166.212158,43.026882,-36.631977,0,0,1
0.58482,0.690539,0.624451,-18.43148,5.031266,-47.706444,91.063087,-65.236794,-2171.030518,38.908249,-32.135193,0,0,1
0.617535,1.162951,1.223572,-9.408578,-18.785528,-66.057587,89.116867,-66.193321,-2177.702393,40.315041,-20.093666,0,0,1
0.805035,0.416857,0.763855,-5.026898,-4.617589,-21.645374,87.248726,-66.181953,-2179.888672,20.5877,-42.772423,0,0,1
0.426373,0.606799,0.771179,-0.996365,-26.006901,-37.446903,86.096169,-67.902176,-2183.670898,34.55154,-23.485132,0,0,1
0.425884,0.529406,0.54071,-3.484914,-30.037437,-39.370567,84.780632,-70.104652,-2187.647217,37.566044,-29.370647,0,0,1
0.368511,0.620715,0.540955,0.560887,-22.984001,-40.744614,84.010139,-71.459755,-2191.762451,43.480305,-24.111904,0,0,1
0.509624,0.788439,0.66571,-1.591784,-22.709192,-31.675909,83.037216,-72.803986,-2194.96167,43.241539,-26.283499,0,0,1
0.923443,1.099475,1.224792,0.896765,-33.793163,-37.202625,82.177887,-75.278656,-2198.719238,35.632259,-29.295002,0,0,1
0.568707,0.470812,0.651306,-30.660484,-50.510719,-46.607208,78.07093,-79.47834,-2203.426514,28.568716,-35.28508,0,0,1
0.594585,0.608264,0.507996,-28.309341,-43.380947,-46.927818,74.464958,-82.920219,-2208.16626,37.875351,-36.879894,0,0,1
0.462505,0.592395,0.378845,-26.691021,-25.365681,-49.416367,71.228523,-84.439201,-2213.157227,44.736973,-33.334465,0,0,1
0.606792,0.69591,0.366882,-18.706287,-6.663391,-35.614841,68.84166,-84.162834,-2216.754395,44.462795,-37.643566,0,0,1
0.44566,0.767687,0.747742,-19.866592,14.832792,-22.622475,66.32663,-81.463036,-2219.039307,41.409588,-22.580378,0,0,1
0.874859,0.773547,1.153015,-1.271173,-31.075603,-47.248428,65.436729,-83.553932,-2223.811279,28.122604,-32.214756,0,0,1
0.745953,0.515734,0.729919,19.721191,34.283173,4.079816,66.605934,-79.286507,-2223.39917,26.296694,-39.849903,0,0,1
0.348248,0.37926,0.676453,16.576155,12.74119,-6.820947,67.444435,-76.923309,-2224.088135,26.495367,-24.182575,0,0,1
0.401226,0.527941,0.493103,25.614323,-1.457284,-5.874382,69.425026,-76.110046,-2224.681396,39.708591,-29.047846,0,0,1
0.235699,0.659289,0.66449,25.751728,2.664853,-8.637741,71.446999,-74.606743,-2225.553711,43.078835,-14.133198,0,0,1
0.251324,0.957141,0.67865,35.278446,-0.296978,-20.729343,74.568069,-73.385796,-2227.647461,52.907173,-12.089979,0,0,1
0.855816,0.823107,1.277771,3.415849,-14.190109,-15.095757,73.977936,-73.910263,-2229.172119,28.15645,-29.382145,0,0,1
0.80772,0.770373,0.678894,9.537987,-16.800795,-11.981253,74.165123,-74.858788,-2230.382324,36.133862,-38.18924,0,0,1
0.460552,0.502795,0.387878,2.026536,4.909128,-3.462168,73.679665,-73.594742,-2230.731934,39.862896,-35.951668,0,0,1
0.419781,0.538195,0.377869,4.560887,15.65722,-2.820947,73.529869,-71.224136,-2231.016846,43.618198,-32.5522,0,0,1
0.448833,0.790637,0.399353,12.683025,33.29081,-6.133924,74.370033,-67.041969,-2231.636475,52.770027,-26.872034,0,0,1
0.386333,1.107775,0.725281,22.942566,44.176304,-9.080489,76.222122,-61.653877,-2232.553711,53.431644,-16.265881,0,0,1
1.048931,0.761584,1.367859,-6.904761,11.367144,27.835543,74.49099,-59.972118,-2229.742432,23.836781,-33.821854,0,0,1
0.499615,0.640002,0.624939,31.263176,38.771725,21.591267,76.868721,-55.518745,-2227.561768,38.656322,-29.184822,0,0,1
0.337261,0.469104,0.561462,24.912033,43.168671,49.850807,78.509361,-50.630497,-2222.526855,35.611065,-24.748077,0,0,1
0.188091,0.594836,0.578552,21.553253,17.275539,24.873709,79.959641,-48.163387,-2220.014648,44.356052,-12.771599,0,0,1
0.093853,0.684436,0.773376,18.240276,-0.067971,-0.668275,80.99189,-47.310703,-2220.082031,41.300961,-5.192617,0,0,1
0.624126,1.275256,1.077576,12.454018,-23.671024,-13.981253,81.518379,-49.117386,-2221.494141,45.681549,-20.49704,0,0,1
0.874859,0.665393,0.9328,-7.225372,-17.182474,-24.607206,79.72261,-50.583019,-2223.979492,27.487938,-37.362953,0,0,1
0.580181,0.620959,0.535095,-5.912395,9.596151,-6.820947,78.306839,-49.327343,-2224.668457,38.19416,-35.290562,0,0,1
0.355816,0.353869,0.381042,-6.721556,16.878593,-15.065222,76.758743,-47.357784,-2226.189941,34.167278,-34.381504,0,0,1
0.51939,0.727893,0.378113,1.934933,18.084702,-7.324764,76.386444,-45.267456,-2226.929688,48.568073,-32.342632,0,0,1
0.350445,0.83507,0.76947,2.591422,44.817524,-3.309497,76.008095,-40.269093,-2227.263916,44.643909,-17.151169,0,0,1
0.696148,0.978625,1.112244,4.835697,22.542717,-12.69881,75.700897,-37.735809,-2228.546387,36.716473,-25.168797,0,0,1
0.591656,0.683459,0.797791,29.24791,48.695389,25.377527,77.772484,-32.748993,-2225.983154,34.532265,-29.388403,0,0,1
0.396587,0.476916,0.668884,26.912033,36.19157,31.72867,79.511208,-29.027163,-2222.778564,31.520988,-25.769516,0,0,1
0.23399,0.543322,0.567322,22.881496,18.588516,28.354628,81.01619,-26.93848,-2219.914795,41.520031,-16.587532,0,0,1
0.124859,0.571643,0.690857,18.850964,8.008365,3.621801,82.044815,-25.765585,-2219.549072,39.154156,-7.927107,0,0,1
0.394878,1.035022,0.786804,14.744094,-21.090872,-16.347664,82.855637,-27.675743,-2221.200195,49.617252,-16.894737,0,0,1
0.77232,0.562854,1.124207,0.912033,15.168671,-11.752245,81.737289,-26.252081,-2222.387207,22.424417,-31.56238,0,0,1
0.873638,0.767443,0.603699,6.927299,11.306074,-10.500337,81.50531,-25.444359,-2223.447754,35.855156,-41.819763,0,0,1
0.603863,0.602404,0.506531,9.156307,41.825157,13.209587,81.529312,-21.545553,-2222.113525,37.390694,-37.496792,0,0,1
0.573345,0.695422,0.490417,11.73646,51.138134,33.88134,81.913757,-16.732407,-2218.691406,42.667641,-33.970844,0,0,1
0.673931,0.837756,0.493835,24.148674,71.397675,62.079811,83.567261,-10.025258,-2212.421387,45.07732,-34.722187,0,0,1
0.619244,0.993029,0.864929,32.499817,108.786987,89.438591,85.973358,0.439298,-2203.388184,43.030693,-25.18434,0,0,1
0.287945,0.451037,0.900574,12.041803,55.947296,65.499664,85.955856,5.649087,-2196.772705,25.503115,-15.954398,0,0,1
0.4315,0.575549,0.780945,7.537987,92.374779,91.041649,85.639343,14.199782,-2187.577393,32.824886,-23.979029,0,0,1
0.369732,0.670275,0.625671,34.148674,87.061798,104.659966,88.160286,22.093943,-2177.006836,42.685062,-21.960995,0,0,1
0.202007,0.698107,0.809998,53.217377,87.504547,107.209587,92.462616,30.099312,-2166.178711,39.904053,-10.697765,0,0,1
0.024029,0.605578,0.936951,42.942566,75.321342,97.789742,95.521156,36.927956,-2156.302002,32.867161,-1.233879,0,0,1
0.069195,0.628039,0.760193,48.072338,39.626686,69.667603,99.157852,40.031368,-2149.265625,39.446053,-4.014014,0,0,1
0.335552,0.845568,1.099792,56.576157,55.275539,75.438591,103.501213,44.429962,-2141.64624,36.329922,-13.597478,0,0,1
0.518902,0.491564,0.979187,53.431118,40.023632,40.583633,107.198219,46.996052,-2137.547363,23.920998,-25.342375,0,0,1
0.53941,0.67882,0.810486,37.003635,41.748821,44.034012,109.414589,49.647797,-2133.099854,34.885918,-27.031672,0,0,1
0.43565,0.592395,0.616882,32.16394,35.260273,44.782104,111.172112,51.605038,-2128.576904,38.111187,-26.99317,0,0,1
0.341167,0.687365,0.698914,24.728825,40.25264,35.820274,112.225739,54.173359,-2124.958984,41.470291,-19.189442,0,0,1
0.364605,0.713,0.666687,24.209743,46.57325,25.362261,113.241035,57.290085,-2122.397461,43.177189,-20.481606,0,0,1
0.578716,0.957141,1.06781,31.736462,54.741188,16.44623,114.882309,61.12302,-2120.736328,38.240307,-21.977514,0,0,1
0.728619,0.453479,0.968933,21.370049,49.779358,51.789738,115.110054,67.742561,-2115.505615,20.508755,-34.257942,0,0,1
0.303814,0.471301,0.68988,23.644855,57.580883,56.156151,115.788513,75.287399,-2109.83374,32.014458,-19.982862,0,0,1
0.237896,0.476428,0.751404,28.637222,44.970196,46.156151,116.93029,81.533409,-2105.171875,31.152042,-14.969825,0,0,1
0.163677,0.555529,0.875183,30.621956,28.145769,32.629433,118.261887,86.109154,-2101.876221,31.961683,-8.972741,0,0,1
0.160259,0.507922,0.919861,22.54562,-1.442017,2.705771,118.699127,87.670807,-2101.603027,28.54524,-8.671656,0,0,1
0.195171,0.926379,0.875183,26.255543,-17.655758,-25.55377,119.842583,87.59568,-2104.183838,45.933266,-8.706989,0,0,1
0.931988,0.416125,1.014343,7.766994,-13.304613,-3.431634,118.550697,87.319542,-2104.530518,16.808943,-40.366467,0,0,1
0.825542,0.808215,0.656189,14.194475,29.275541,9.270657,118.333977,-88.697426,-2103.594238,37.466465,-38.413944,0,0,1
0.550884,0.526965,0.558044,21.583788,52.634319,31.392794,118.7817,-82.427101,-2100.423584,33.902,-35.668308,0,0,1
0.379742,0.63927,0.623962,23.20211,52.237373,37.682869,119.526459,-76.068703,-2096.617676,41.192162,-23.030212,0,0,1
0.263775,0.590441,0.629333,20.560886,55.794624,33.011112,119.988426,-69.364716,-2093.283447,40.868721,-16.996647,0,0,1
0.377544,0.809924,0.735046,20.927299,49.474014,12.70577,120.548546,-63.461365,-2092.000244,44.425285,-19.043972,0,0,1
0.848248,0.799182,1.55658,23.476917,75.000732,32.91951,120.946671,-55.285831,-2088.675293,24.267159,-25.863256,0,0,1
0.36314,0.572863,0.631531,27.52272,47.382412,39.224854,122.015549,-49.951584,-2084.713623,38.18037,-23.069077,0,0,1
0.301373,0.434924,0.735046,24.835697,28.161037,38.27829,122.60746,-46.553894,-2080.847412,28.699236,-19.43602,0,0,1
0.162945,0.547473,0.88324,20.392948,11.397678,12.965313,122.801102,-44.672909,-2079.537842,31.364803,-8.911723,0,0,1
0.164654,0.566027,0.728943,14.789895,-5.945833,-17.645374,122.551811,-44.570282,-2081.320068,37.141098,-10.11566,0,0,1
0.370953,0.835314,1.176453,-6.492548,-27.945835,-31.706442,120.140244,-46.733322,-2084.522461,34.104397,-14.4184,0,0,1
0.758404,0.57384,1.095642,-23.820793,-50.831329,-58.194996,115.845634,-51.460262,-2090.400146,23.298779,-31.516146,0,0,1
0.577496,0.624621,0.615173,-38.568882,-61.762627,-62.714077,110.441414,-57.211796,-2096.734375,36.511749,-33.37373,0,0,1
0.573589,0.604357,0.474304,-41.149036,-57.304611,-66.04232,104.941185,-62.47448,-2103.404541,39.076279,-36.745583,0,0,1
0.56065,0.693957,0.501404,-34.141403,-31.213009,-66.43927,100.316963,-64.978828,-2110.11499,42.695484,-33.218979,0,0,1
0.529156,0.655383,0.483826,-30.324608,-17.854231,-69.492699,96.157677,-66.106598,-2117.133789,42.42915,-33.006531,0,0,1
0.521343,0.886828,0.839294,-20.584152,2.832792,-71.187355,93.035309,-64.966507,-2124.32373,41.910107,-23.121273,0,0,1
0.743755,0.625842,0.740417,-28.553616,-71.503082,-76.591942,88.964554,-71.494438,-2132.05957,30.80932,-37.494247,0,0,1
0.280132,0.656604,0.870789,-29.332241,-65.533623,-78.744614,84.995377,-76.839188,-2140.012695,35.670952,-14.405653,0,0,1
0.417339,0.712512,0.75946,-43.164303,-78.938202,-94.500336,79.811615,-83.552483,-2149.557129,39.427582,-21.838921,0,0,1
0.439556,0.847033,0.566833,-42.996365,-78.495453,-97.47744,74.954422,89.882492,-2159.402344,49.741062,-23.329391,0,0,1
0.47691,0.806262,0.482361,-35.469646,-71.991638,-78.714081,70.943062,84.020851,-2167.352539,49.925697,-26.91238,0,0,1
0.427593,0.867053,0.555359,-10.568883,-56.999268,-73.309502,69.499069,79.84761,-2174.756836,51.048981,-22.551908,0,0,1
0.784771,0.59215,0.980164,-21.820793,-65.228279,-61.492702,66.454231,74.705902,-2180.967529,25.248533,-34.42289,0,0,1
0.513531,0.669299,0.701843,-51.072701,-92.663391,-86.836212,60.821617,67.081924,-2189.738037,37.582428,-27.901804,0,0,1
0.541851,0.673693,0.372009,-45.988731,-46.464916,-76.927818,55.967365,64.0382,-2197.507812,45.70731,-35.148861,0,0,1
0.739849,0.701281,0.361755,-31.652851,-30.373314,-53.523239,52.523327,62.487976,-2202.913574,40.415352,-43.155388,0,0,1
0.624126,0.707873,0.485779,-6.202472,3.855693,-31.798046,51.695526,64.499527,-2206.125244,41.82943,-36.016224,0,0,1
0.687115,0.949572,0.932068,1.690659,26.496914,-18.59194,51.61602,68.885956,-2208.00293,39.353024,-27.311974,0,0,1
1.067486,0.658801,0.77948,11.492186,43.077068,8.675236,52.251045,74.446274,-2207.126709,26.492474,-46.286533,0,0,1
0.542339,0.576037,0.768738,25.599056,49.519814,39.805004,54.369396,80.869858,-2203.106445,31.478697,-29.448053,0,0,1
-0.774638,0.041131,1.388057,-3.513191,-9.565071,-9.61203,0.599903,26.371187,-409.756012,1.482232,29.154024,0,1,0
-0.800761,-0.037482,1.287959,-46.108612,18.816608,-26.329588,-4.004241,28.343422,-412.415314,-1.415751,31.85951,0,1,0
-0.739237,-0.094855,1.223262,-49.6964,22.297525,-25.963177,-8.919044,30.60495,-415.037598,-3.796898,31.069284,0,1,0
-0.762675,-0.177863,1.308223,-60.01701,18.694471,-22.634932,-14.815127,32.443504,-417.32373,-6.698985,30.013771,0,1,0
-0.801005,-0.316291,1.209102,-56.169682,35.457832,-14.894473,-20.324547,35.957378,-418.828064,-12.302319,32.656345,0,1,0
-0.867899,-0.391974,1.189083,-35.100979,30.236456,-10.222717,-23.690548,38.925629,-419.860565,-14.909837,34.729614,0,1,0
-0.907938,-0.434699,1.174678,-11.818534,8.190655,-1.383022,-24.712929,39.676582,-420.000244,-16.319664,35.937737,0,1,0
-0.895487,-0.450324,1.179073,-9.19258,-7.916215,-3.184549,-25.4669,38.806618,-420.321869,-16.917355,35.355614,0,1,0
-0.874735,-0.411505,1.155879,13.647115,-4.297895,2.693314,-23.923738,38.314812,-420.049835,-15.848359,35.486507,0,1,0
-0.833231,-0.414679,1.156612,76.0746,-35.473465,16.784916,-16.239798,34.720207,-418.354553,-16.219854,34.142738,0,1,0
-0.774394,-0.222052,1.284297,60.792152,-21.336063,15.181863,-10.066239,32.528297,-416.821198,-8.422267,30.71689,0,1,0
-0.784892,-0.160285,1.268672,48.731083,-14.038353,13.273466,-5.164159,31.119041,-415.480591,-6.13239,31.541288,0,1,0
-0.756815,-0.044562,1.312374,51.784519,-12.343697,14.128428,0.031059,29.874016,-414.053619,-1.684853,29.95677,0,1,0
-0.758524,0.074334,1.328975,44.105129,12.923479,12.38797,4.451586,31.14925,-412.802429,2.781131,29.677443,0,1,0
-0.749979,0.098993,1.297237,24.746351,-3.641406,8.525374,6.887542,30.765072,-411.941376,3.779711,29.961735,0,1,0
-0.743632,0.128534,1.26379,-0.688763,6.984548,6.723848,6.781808,31.447989,-411.262268,5.009523,30.344467,0,1,0
-0.719462,0.1466,1.318965,6.10513,-8.328428,-0.024244,7.361918,30.563955,-411.264709,5.573014,28.463718,0,1,0
-0.745585,0.219842,1.289424,47.479176,-19.015453,-4.405923,12.082091,28.664194,-411.709717,8.39612,29.683378,0,1,0
-0.681864,0.280145,1.255,32.181465,-25.381865,-4.42119,15.247716,26.137323,-412.15625,11.097254,27.935545,0,1,0
-0.634257,0.332635,1.297969,29.021162,-21.183392,4.082627,18.074608,24.024462,-411.743896,12.966564,25.33083,0,1,0
-0.634989,0.378534,1.266231,29.357038,-23.229193,7.19713,20.918102,21.758005,-411.016998,14.961352,25.662878,0,1,0
-0.575907,0.395868,1.206172,16.685284,-16.420033,3.838352,22.481207,20.185627,-410.629333,16.497887,24.401815,0,1,0
-0.58494,0.397577,1.224727,-1.146778,6.450197,3.258199,22.244612,20.908974,-410.300262,16.326857,24.430986,0,1,0
